_id,rt,trial_type,trial_index,time_elapsed,internal_node_id,subject,study_id,session_id,__v,response,stimulus,block,chosen_video,chosen_object,leftVideo,rightVideo,explanation
6895363760c1d27b582a0f2d,4144,instructions,0,4146,0,6310d1ed7f4d3049ba540f3c,68953131762dbff38dcaae6a,68953498e55c19b3dd6cd0e5,0,,,,,,,,
6895363760c1d27b582a0f2f,12860,instructions,1,17008,0,6310d1ed7f4d3049ba540f3c,68953131762dbff38dcaae6a,68953498e55c19b3dd6cd0e5,0,,,,,,,,
6895363760c1d27b582a0f31,7051,comparison_trial,2,24068,0,6310d1ed7f4d3049ba540f3c,68953131762dbff38dcaae6a,68953498e55c19b3dd6cd0e5,0,1,"\n                        <div style=""text-align: center; padding: 20px; max-width: 1000px; margin: 0 auto;"">\n                            <h2 style=""font-size: 28px; margin-bottom: 40px; color: #333;"">\n                                Which object is more complex?\n                            </h2>\n                            \n                            <div style=""display: flex; justify-content: center; align-items: flex-start; gap: 60px; margin: 40px 0;"">\n                                <div style=""text-align: center;"">\n                                    <div style=""font-size: 20px; font-weight: bold; margin-bottom: 15px; color: #8C1515;"">Object A</div>\n                                    <video id=""video1"" src=""/general_assets/videos_familiarobjs/File 4.mp4"" \n                                           style=""width: 350px; height: 250px; object-fit: cover; border-radius: 8px; border: 2px solid #8C1515;""\n                                           muted loop>\n                                    </video>\n                                </div>\n                                \n                                <div style=""text-align: center;"">\n                                    <div style=""font-size: 20px; font-weight: bold; margin-bottom: 15px; color: #8C1515;"">Object B</div>\n                                    <video id=""video2"" src=""/general_assets/videos_familiarobjs/File 10.mp4"" \n                                           style=""width: 350px; height: 250px; object-fit: cover; border-radius: 8px; border: 2px solid #8C1515;""\n                                           muted loop>\n                                    </video>\n                                </div>\n                            </div>\n                            \n                            <p id=""instruction-text"" style=""margin-top: 30px; font-size: 18px; color: #666; max-width: 600px; margin-left: auto; margin-right: auto;"">\n                                Please wait for both videos to finish playing before making your choice.\n                            </p>\n                            \n                            <div id=""explanation-section"" style=""display: none; margin-top: 30px;"">\n                                <h3 style=""font-size: 22px; margin-bottom: 20px; color: #333;"">Please explain your choice:</h3>\n                                <textarea id=""explanation-text"" \n                                          placeholder=""Type your explanation here..."" \n                                          style=""width: 80%; max-width: 600px; height: 120px; padding: 15px; border: 2px solid #8C1515; border-radius: 8px; font-size: 16px; font-family: Arial, sans-serif; resize: vertical;""\n                                          required></textarea>\n                                <br><br>\n                                <button id=""submit-explanation"" class=""jspsych-btn"" style=""font-size: 18px; padding: 15px 30px; background-color: #8C1515; color: white; border: none; border-radius: 8px; cursor: pointer; min-width: 200px;"">\n                                    Continue\n                                </button>\n                            </div>\n                        </div>\n                    ",main_experiment,File 10.mp4,Object B,File 4.mp4,File 10.mp4,
6895363760c1d27b582a0f33,34740,explanation_trial,3,58815,0,6310d1ed7f4d3049ba540f3c,68953131762dbff38dcaae6a,68953498e55c19b3dd6cd0e5,0,0,"\n                        <div style=""text-align: center; padding: 20px; max-width: 1000px; margin: 0 auto;"">\n                            <h2 style=""font-size: 28px; margin-bottom: 40px; color: #333;"">\n                                Explain Your Choice\n                            </h2>\n                            \n                            <div style=""display: flex; justify-content: center; align-items: flex-start; gap: 60px; margin: 40px 0;"">\n                                <div style=""text-align: center;"">\n                                    <div style=""font-size: 20px; font-weight: bold; margin-bottom: 15px; color: #8C1515;"">Object A</div>\n                                    <video id=""video1"" src=""/general_assets/videos_familiarobjs/File 4.mp4"" \n                                           style=""width: 350px; height: 250px; object-fit: cover; border-radius: 8px; border: 2px solid #8C1515;""\n                                           muted autoplay loop>\n                                    </video>\n                                </div>\n                                \n                                <div style=""text-align: center;"">\n                                    <div style=""font-size: 20px; font-weight: bold; margin-bottom: 15px; color: #28a745;"">Object B (Your Choice)</div>\n                                    <video id=""video2"" src=""/general_assets/videos_familiarobjs/File 10.mp4"" \n                                           style=""width: 350px; height: 250px; object-fit: cover; border-radius: 8px; border: 4px solid #28a745;""\n                                           muted autoplay loop>\n                                    </video>\n                                </div>\n                            </div>\n                            \n                            <div style=""margin-top: 40px; max-width: 800px; margin-left: auto; margin-right: auto;"">\n                                <h3 style=""font-size: 22px; margin-bottom: 20px; color: #333;"">\n                                    Please explain why you chose Object B as more complex:\n                                </h3>\n                                <textarea id=""explanation-text"" \n                                          placeholder=""Type your explanation here..."" \n                                          style=""width: 100%; height: 150px; padding: 20px; border: 2px solid #8C1515; border-radius: 8px; font-size: 16px; font-family: Arial, sans-serif; resize: vertical; box-sizing: border-box;""\n                                          required></textarea>\n                            </div>\n                        </div>\n                    ",,,,File 4.mp4,File 10.mp4,"Object A is one solid piece that doesn't appear to perform a function, whereas Object B consists of multiple parts that function as a tool. "
6895363760c1d27b582a0f35,9935,comparison_trial,4,68756,0,6310d1ed7f4d3049ba540f3c,68953131762dbff38dcaae6a,68953498e55c19b3dd6cd0e5,0,1,"\n                        <div style=""text-align: center; padding: 20px; max-width: 1000px; margin: 0 auto;"">\n                            <h2 style=""font-size: 28px; margin-bottom: 40px; color: #333;"">\n                                Which object is more complex?\n                            </h2>\n                            \n                            <div style=""display: flex; justify-content: center; align-items: flex-start; gap: 60px; margin: 40px 0;"">\n                                <div style=""text-align: center;"">\n                                    <div style=""font-size: 20px; font-weight: bold; margin-bottom: 15px; color: #8C1515;"">Object A</div>\n                                    <video id=""video1"" src=""/general_assets/videos_familiarobjs/File 22.mp4"" \n                                           style=""width: 350px; height: 250px; object-fit: cover; border-radius: 8px; border: 2px solid #8C1515;""\n                                           muted loop>\n                                    </video>\n                                </div>\n                                \n                                <div style=""text-align: center;"">\n                                    <div style=""font-size: 20px; font-weight: bold; margin-bottom: 15px; color: #8C1515;"">Object B</div>\n                                    <video id=""video2"" src=""/general_assets/videos_familiarobjs/File 28.mp4"" \n                                           style=""width: 350px; height: 250px; object-fit: cover; border-radius: 8px; border: 2px solid #8C1515;""\n                                           muted loop>\n                                    </video>\n                                </div>\n                            </div>\n                            \n                            <p id=""instruction-text"" style=""margin-top: 30px; font-size: 18px; color: #666; max-width: 600px; margin-left: auto; margin-right: auto;"">\n                                Please wait for both videos to finish playing before making your choice.\n                            </p>\n                            \n                            <div id=""explanation-section"" style=""display: none; margin-top: 30px;"">\n                                <h3 style=""font-size: 22px; margin-bottom: 20px; color: #333;"">Please explain your choice:</h3>\n                                <textarea id=""explanation-text"" \n                                          placeholder=""Type your explanation here..."" \n                                          style=""width: 80%; max-width: 600px; height: 120px; padding: 15px; border: 2px solid #8C1515; border-radius: 8px; font-size: 16px; font-family: Arial, sans-serif; resize: vertical;""\n                                          required></textarea>\n                                <br><br>\n                                <button id=""submit-explanation"" class=""jspsych-btn"" style=""font-size: 18px; padding: 15px 30px; background-color: #8C1515; color: white; border: none; border-radius: 8px; cursor: pointer; min-width: 200px;"">\n                                    Continue\n                                </button>\n                            </div>\n                        </div>\n                    ",main_experiment,File 28.mp4,Object B,File 22.mp4,File 28.mp4,
6895363760c1d27b582a0f37,16572,explanation_trial,5,85332,0,6310d1ed7f4d3049ba540f3c,68953131762dbff38dcaae6a,68953498e55c19b3dd6cd0e5,0,0,"\n                        <div style=""text-align: center; padding: 20px; max-width: 1000px; margin: 0 auto;"">\n                            <h2 style=""font-size: 28px; margin-bottom: 40px; color: #333;"">\n                                Explain Your Choice\n                            </h2>\n                            \n                            <div style=""display: flex; justify-content: center; align-items: flex-start; gap: 60px; margin: 40px 0;"">\n                                <div style=""text-align: center;"">\n                                    <div style=""font-size: 20px; font-weight: bold; margin-bottom: 15px; color: #8C1515;"">Object A</div>\n                                    <video id=""video1"" src=""/general_assets/videos_familiarobjs/File 22.mp4"" \n                                           style=""width: 350px; height: 250px; object-fit: cover; border-radius: 8px; border: 2px solid #8C1515;""\n                                           muted autoplay loop>\n                                    </video>\n                                </div>\n                                \n                                <div style=""text-align: center;"">\n                                    <div style=""font-size: 20px; font-weight: bold; margin-bottom: 15px; color: #28a745;"">Object B (Your Choice)</div>\n                                    <video id=""video2"" src=""/general_assets/videos_familiarobjs/File 28.mp4"" \n                                           style=""width: 350px; height: 250px; object-fit: cover; border-radius: 8px; border: 4px solid #28a745;""\n                                           muted autoplay loop>\n                                    </video>\n                                </div>\n                            </div>\n                            \n                            <div style=""margin-top: 40px; max-width: 800px; margin-left: auto; margin-right: auto;"">\n                                <h3 style=""font-size: 22px; margin-bottom: 20px; color: #333;"">\n                                    Please explain why you chose Object B as more complex:\n                                </h3>\n                                <textarea id=""explanation-text"" \n                                          placeholder=""Type your explanation here..."" \n                                          style=""width: 100%; height: 150px; padding: 20px; border: 2px solid #8C1515; border-radius: 8px; font-size: 16px; font-family: Arial, sans-serif; resize: vertical; box-sizing: border-box;""\n                                          required></textarea>\n                            </div>\n                        </div>\n                    ",,,,File 22.mp4,File 28.mp4,Object B has a lid and a label. Object A does not. 
6895363760c1d27b582a0f39,8387,comparison_trial,6,93723,0,6310d1ed7f4d3049ba540f3c,68953131762dbff38dcaae6a,68953498e55c19b3dd6cd0e5,0,0,"\n                        <div style=""text-align: center; padding: 20px; max-width: 1000px; margin: 0 auto;"">\n                            <h2 style=""font-size: 28px; margin-bottom: 40px; color: #333;"">\n                                Which object is more complex?\n                            </h2>\n                            \n                            <div style=""display: flex; justify-content: center; align-items: flex-start; gap: 60px; margin: 40px 0;"">\n                                <div style=""text-align: center;"">\n                                    <div style=""font-size: 20px; font-weight: bold; margin-bottom: 15px; color: #8C1515;"">Object A</div>\n                                    <video id=""video1"" src=""/general_assets/videos_familiarobjs/File 25.mp4"" \n                                           style=""width: 350px; height: 250px; object-fit: cover; border-radius: 8px; border: 2px solid #8C1515;""\n                                           muted loop>\n                                    </video>\n                                </div>\n                                \n                                <div style=""text-align: center;"">\n                                    <div style=""font-size: 20px; font-weight: bold; margin-bottom: 15px; color: #8C1515;"">Object B</div>\n                                    <video id=""video2"" src=""/general_assets/videos_familiarobjs/File 9.mp4"" \n                                           style=""width: 350px; height: 250px; object-fit: cover; border-radius: 8px; border: 2px solid #8C1515;""\n                                           muted loop>\n                                    </video>\n                                </div>\n                            </div>\n                            \n                            <p id=""instruction-text"" style=""margin-top: 30px; font-size: 18px; color: #666; max-width: 600px; margin-left: auto; margin-right: auto;"">\n                                Please wait for both videos to finish playing before making your choice.\n                            </p>\n                            \n                            <div id=""explanation-section"" style=""display: none; margin-top: 30px;"">\n                                <h3 style=""font-size: 22px; margin-bottom: 20px; color: #333;"">Please explain your choice:</h3>\n                                <textarea id=""explanation-text"" \n                                          placeholder=""Type your explanation here..."" \n                                          style=""width: 80%; max-width: 600px; height: 120px; padding: 15px; border: 2px solid #8C1515; border-radius: 8px; font-size: 16px; font-family: Arial, sans-serif; resize: vertical;""\n                                          required></textarea>\n                                <br><br>\n                                <button id=""submit-explanation"" class=""jspsych-btn"" style=""font-size: 18px; padding: 15px 30px; background-color: #8C1515; color: white; border: none; border-radius: 8px; cursor: pointer; min-width: 200px;"">\n                                    Continue\n                                </button>\n                            </div>\n                        </div>\n                    ",main_experiment,File 25.mp4,Object A,File 25.mp4,File 9.mp4,
6895363760c1d27b582a0f3b,89476,explanation_trial,7,183202,0,6310d1ed7f4d3049ba540f3c,68953131762dbff38dcaae6a,68953498e55c19b3dd6cd0e5,0,0,"\n                        <div style=""text-align: center; padding: 20px; max-width: 1000px; margin: 0 auto;"">\n                            <h2 style=""font-size: 28px; margin-bottom: 40px; color: #333;"">\n                                Explain Your Choice\n                            </h2>\n                            \n                            <div style=""display: flex; justify-content: center; align-items: flex-start; gap: 60px; margin: 40px 0;"">\n                                <div style=""text-align: center;"">\n                                    <div style=""font-size: 20px; font-weight: bold; margin-bottom: 15px; color: #28a745;"">Object A (Your Choice)</div>\n                                    <video id=""video1"" src=""/general_assets/videos_familiarobjs/File 25.mp4"" \n                                           style=""width: 350px; height: 250px; object-fit: cover; border-radius: 8px; border: 4px solid #28a745;""\n                                           muted autoplay loop>\n                                    </video>\n                                </div>\n                                \n                                <div style=""text-align: center;"">\n                                    <div style=""font-size: 20px; font-weight: bold; margin-bottom: 15px; color: #8C1515;"">Object B</div>\n                                    <video id=""video2"" src=""/general_assets/videos_familiarobjs/File 9.mp4"" \n                                           style=""width: 350px; height: 250px; object-fit: cover; border-radius: 8px; border: 2px solid #8C1515;""\n                                           muted autoplay loop>\n                                    </video>\n                                </div>\n                            </div>\n                            \n                            <div style=""margin-top: 40px; max-width: 800px; margin-left: auto; margin-right: auto;"">\n                                <h3 style=""font-size: 22px; margin-bottom: 20px; color: #333;"">\n                                    Please explain why you chose Object A as more complex:\n                                </h3>\n                                <textarea id=""explanation-text"" \n                                          placeholder=""Type your explanation here..."" \n                                          style=""width: 100%; height: 150px; padding: 20px; border: 2px solid #8C1515; border-radius: 8px; font-size: 16px; font-family: Arial, sans-serif; resize: vertical; box-sizing: border-box;""\n                                          required></textarea>\n                            </div>\n                        </div>\n                    ",,,,File 25.mp4,File 9.mp4,Object A is more complex since it contains mechanical parts and can generate music. 
6895363760c1d27b582a0f3d,7284,comparison_trial,8,190493,0,6310d1ed7f4d3049ba540f3c,68953131762dbff38dcaae6a,68953498e55c19b3dd6cd0e5,0,1,"\n                        <div style=""text-align: center; padding: 20px; max-width: 1000px; margin: 0 auto;"">\n                            <h2 style=""font-size: 28px; margin-bottom: 40px; color: #333;"">\n                                Which object is more complex?\n                            </h2>\n                            \n                            <div style=""display: flex; justify-content: center; align-items: flex-start; gap: 60px; margin: 40px 0;"">\n                                <div style=""text-align: center;"">\n                                    <div style=""font-size: 20px; font-weight: bold; margin-bottom: 15px; color: #8C1515;"">Object A</div>\n                                    <video id=""video1"" src=""/general_assets/videos_familiarobjs/File 18.mp4"" \n                                           style=""width: 350px; height: 250px; object-fit: cover; border-radius: 8px; border: 2px solid #8C1515;""\n                                           muted loop>\n                                    </video>\n                                </div>\n                                \n                                <div style=""text-align: center;"">\n                                    <div style=""font-size: 20px; font-weight: bold; margin-bottom: 15px; color: #8C1515;"">Object B</div>\n                                    <video id=""video2"" src=""/general_assets/videos_familiarobjs/File 23.mp4"" \n                                           style=""width: 350px; height: 250px; object-fit: cover; border-radius: 8px; border: 2px solid #8C1515;""\n                                           muted loop>\n                                    </video>\n                                </div>\n                            </div>\n                            \n                            <p id=""instruction-text"" style=""margin-top: 30px; font-size: 18px; color: #666; max-width: 600px; margin-left: auto; margin-right: auto;"">\n                                Please wait for both videos to finish playing before making your choice.\n                            </p>\n                            \n                            <div id=""explanation-section"" style=""display: none; margin-top: 30px;"">\n                                <h3 style=""font-size: 22px; margin-bottom: 20px; color: #333;"">Please explain your choice:</h3>\n                                <textarea id=""explanation-text"" \n                                          placeholder=""Type your explanation here..."" \n                                          style=""width: 80%; max-width: 600px; height: 120px; padding: 15px; border: 2px solid #8C1515; border-radius: 8px; font-size: 16px; font-family: Arial, sans-serif; resize: vertical;""\n                                          required></textarea>\n                                <br><br>\n                                <button id=""submit-explanation"" class=""jspsych-btn"" style=""font-size: 18px; padding: 15px 30px; background-color: #8C1515; color: white; border: none; border-radius: 8px; cursor: pointer; min-width: 200px;"">\n                                    Continue\n                                </button>\n                            </div>\n                        </div>\n                    ",main_experiment,File 23.mp4,Object B,File 18.mp4,File 23.mp4,
6895363760c1d27b582a0f3f,30266,explanation_trial,9,220763,0,6310d1ed7f4d3049ba540f3c,68953131762dbff38dcaae6a,68953498e55c19b3dd6cd0e5,0,0,"\n                        <div style=""text-align: center; padding: 20px; max-width: 1000px; margin: 0 auto;"">\n                            <h2 style=""font-size: 28px; margin-bottom: 40px; color: #333;"">\n                                Explain Your Choice\n                            </h2>\n                            \n                            <div style=""display: flex; justify-content: center; align-items: flex-start; gap: 60px; margin: 40px 0;"">\n                                <div style=""text-align: center;"">\n                                    <div style=""font-size: 20px; font-weight: bold; margin-bottom: 15px; color: #8C1515;"">Object A</div>\n                                    <video id=""video1"" src=""/general_assets/videos_familiarobjs/File 18.mp4"" \n                                           style=""width: 350px; height: 250px; object-fit: cover; border-radius: 8px; border: 2px solid #8C1515;""\n                                           muted autoplay loop>\n                                    </video>\n                                </div>\n                                \n                                <div style=""text-align: center;"">\n                                    <div style=""font-size: 20px; font-weight: bold; margin-bottom: 15px; color: #28a745;"">Object B (Your Choice)</div>\n                                    <video id=""video2"" src=""/general_assets/videos_familiarobjs/File 23.mp4"" \n                                           style=""width: 350px; height: 250px; object-fit: cover; border-radius: 8px; border: 4px solid #28a745;""\n                                           muted autoplay loop>\n                                    </video>\n                                </div>\n                            </div>\n                            \n                            <div style=""margin-top: 40px; max-width: 800px; margin-left: auto; margin-right: auto;"">\n                                <h3 style=""font-size: 22px; margin-bottom: 20px; color: #333;"">\n                                    Please explain why you chose Object B as more complex:\n                                </h3>\n                                <textarea id=""explanation-text"" \n                                          placeholder=""Type your explanation here..."" \n                                          style=""width: 100%; height: 150px; padding: 20px; border: 2px solid #8C1515; border-radius: 8px; font-size: 16px; font-family: Arial, sans-serif; resize: vertical; box-sizing: border-box;""\n                                          required></textarea>\n                            </div>\n                        </div>\n                    ",,,,File 18.mp4,File 23.mp4,Object B contains multiple things: the product and the container that holds it. It also has a pump. 
6895363760c1d27b582a0f41,6328,comparison_trial,10,227094,0,6310d1ed7f4d3049ba540f3c,68953131762dbff38dcaae6a,68953498e55c19b3dd6cd0e5,0,1,"\n                        <div style=""text-align: center; padding: 20px; max-width: 1000px; margin: 0 auto;"">\n                            <h2 style=""font-size: 28px; margin-bottom: 40px; color: #333;"">\n                                Which object is more complex?\n                            </h2>\n                            \n                            <div style=""display: flex; justify-content: center; align-items: flex-start; gap: 60px; margin: 40px 0;"">\n                                <div style=""text-align: center;"">\n                                    <div style=""font-size: 20px; font-weight: bold; margin-bottom: 15px; color: #8C1515;"">Object A</div>\n                                    <video id=""video1"" src=""/general_assets/videos_familiarobjs/File 15.mp4"" \n                                           style=""width: 350px; height: 250px; object-fit: cover; border-radius: 8px; border: 2px solid #8C1515;""\n                                           muted loop>\n                                    </video>\n                                </div>\n                                \n                                <div style=""text-align: center;"">\n                                    <div style=""font-size: 20px; font-weight: bold; margin-bottom: 15px; color: #8C1515;"">Object B</div>\n                                    <video id=""video2"" src=""/general_assets/videos_familiarobjs/File 23.mp4"" \n                                           style=""width: 350px; height: 250px; object-fit: cover; border-radius: 8px; border: 2px solid #8C1515;""\n                                           muted loop>\n                                    </video>\n                                </div>\n                            </div>\n                            \n                            <p id=""instruction-text"" style=""margin-top: 30px; font-size: 18px; color: #666; max-width: 600px; margin-left: auto; margin-right: auto;"">\n                                Please wait for both videos to finish playing before making your choice.\n                            </p>\n                            \n                            <div id=""explanation-section"" style=""display: none; margin-top: 30px;"">\n                                <h3 style=""font-size: 22px; margin-bottom: 20px; color: #333;"">Please explain your choice:</h3>\n                                <textarea id=""explanation-text"" \n                                          placeholder=""Type your explanation here..."" \n                                          style=""width: 80%; max-width: 600px; height: 120px; padding: 15px; border: 2px solid #8C1515; border-radius: 8px; font-size: 16px; font-family: Arial, sans-serif; resize: vertical;""\n                                          required></textarea>\n                                <br><br>\n                                <button id=""submit-explanation"" class=""jspsych-btn"" style=""font-size: 18px; padding: 15px 30px; background-color: #8C1515; color: white; border: none; border-radius: 8px; cursor: pointer; min-width: 200px;"">\n                                    Continue\n                                </button>\n                            </div>\n                        </div>\n                    ",main_experiment,File 23.mp4,Object B,File 15.mp4,File 23.mp4,
6895363760c1d27b582a0f43,24058,explanation_trial,11,251157,0,6310d1ed7f4d3049ba540f3c,68953131762dbff38dcaae6a,68953498e55c19b3dd6cd0e5,0,0,"\n                        <div style=""text-align: center; padding: 20px; max-width: 1000px; margin: 0 auto;"">\n                            <h2 style=""font-size: 28px; margin-bottom: 40px; color: #333;"">\n                                Explain Your Choice\n                            </h2>\n                            \n                            <div style=""display: flex; justify-content: center; align-items: flex-start; gap: 60px; margin: 40px 0;"">\n                                <div style=""text-align: center;"">\n                                    <div style=""font-size: 20px; font-weight: bold; margin-bottom: 15px; color: #8C1515;"">Object A</div>\n                                    <video id=""video1"" src=""/general_assets/videos_familiarobjs/File 15.mp4"" \n                                           style=""width: 350px; height: 250px; object-fit: cover; border-radius: 8px; border: 2px solid #8C1515;""\n                                           muted autoplay loop>\n                                    </video>\n                                </div>\n                                \n                                <div style=""text-align: center;"">\n                                    <div style=""font-size: 20px; font-weight: bold; margin-bottom: 15px; color: #28a745;"">Object B (Your Choice)</div>\n                                    <video id=""video2"" src=""/general_assets/videos_familiarobjs/File 23.mp4"" \n                                           style=""width: 350px; height: 250px; object-fit: cover; border-radius: 8px; border: 4px solid #28a745;""\n                                           muted autoplay loop>\n                                    </video>\n                                </div>\n                            </div>\n                            \n                            <div style=""margin-top: 40px; max-width: 800px; margin-left: auto; margin-right: auto;"">\n                                <h3 style=""font-size: 22px; margin-bottom: 20px; color: #333;"">\n                                    Please explain why you chose Object B as more complex:\n                                </h3>\n                                <textarea id=""explanation-text"" \n                                          placeholder=""Type your explanation here..."" \n                                          style=""width: 100%; height: 150px; padding: 20px; border: 2px solid #8C1515; border-radius: 8px; font-size: 16px; font-family: Arial, sans-serif; resize: vertical; box-sizing: border-box;""\n                                          required></textarea>\n                            </div>\n                        </div>\n                    ",,,,File 15.mp4,File 23.mp4,"Object B is more complex because it is filled with a substance that performs an action, whereas Object A is an empty container. "
6895363760c1d27b582a0f45,7212,comparison_trial,12,258373,0,6310d1ed7f4d3049ba540f3c,68953131762dbff38dcaae6a,68953498e55c19b3dd6cd0e5,0,0,"\n                        <div style=""text-align: center; padding: 20px; max-width: 1000px; margin: 0 auto;"">\n                            <h2 style=""font-size: 28px; margin-bottom: 40px; color: #333;"">\n                                Which object is more complex?\n                            </h2>\n                            \n                            <div style=""display: flex; justify-content: center; align-items: flex-start; gap: 60px; margin: 40px 0;"">\n                                <div style=""text-align: center;"">\n                                    <div style=""font-size: 20px; font-weight: bold; margin-bottom: 15px; color: #8C1515;"">Object A</div>\n                                    <video id=""video1"" src=""/general_assets/videos_familiarobjs/File 5.mp4"" \n                                           style=""width: 350px; height: 250px; object-fit: cover; border-radius: 8px; border: 2px solid #8C1515;""\n                                           muted loop>\n                                    </video>\n                                </div>\n                                \n                                <div style=""text-align: center;"">\n                                    <div style=""font-size: 20px; font-weight: bold; margin-bottom: 15px; color: #8C1515;"">Object B</div>\n                                    <video id=""video2"" src=""/general_assets/videos_familiarobjs/File 22.mp4"" \n                                           style=""width: 350px; height: 250px; object-fit: cover; border-radius: 8px; border: 2px solid #8C1515;""\n                                           muted loop>\n                                    </video>\n                                </div>\n                            </div>\n                            \n                            <p id=""instruction-text"" style=""margin-top: 30px; font-size: 18px; color: #666; max-width: 600px; margin-left: auto; margin-right: auto;"">\n                                Please wait for both videos to finish playing before making your choice.\n                            </p>\n                            \n                            <div id=""explanation-section"" style=""display: none; margin-top: 30px;"">\n                                <h3 style=""font-size: 22px; margin-bottom: 20px; color: #333;"">Please explain your choice:</h3>\n                                <textarea id=""explanation-text"" \n                                          placeholder=""Type your explanation here..."" \n                                          style=""width: 80%; max-width: 600px; height: 120px; padding: 15px; border: 2px solid #8C1515; border-radius: 8px; font-size: 16px; font-family: Arial, sans-serif; resize: vertical;""\n                                          required></textarea>\n                                <br><br>\n                                <button id=""submit-explanation"" class=""jspsych-btn"" style=""font-size: 18px; padding: 15px 30px; background-color: #8C1515; color: white; border: none; border-radius: 8px; cursor: pointer; min-width: 200px;"">\n                                    Continue\n                                </button>\n                            </div>\n                        </div>\n                    ",main_experiment,File 5.mp4,Object A,File 5.mp4,File 22.mp4,
6895363760c1d27b582a0f47,22908,explanation_trial,13,281284,0,6310d1ed7f4d3049ba540f3c,68953131762dbff38dcaae6a,68953498e55c19b3dd6cd0e5,0,0,"\n                        <div style=""text-align: center; padding: 20px; max-width: 1000px; margin: 0 auto;"">\n                            <h2 style=""font-size: 28px; margin-bottom: 40px; color: #333;"">\n                                Explain Your Choice\n                            </h2>\n                            \n                            <div style=""display: flex; justify-content: center; align-items: flex-start; gap: 60px; margin: 40px 0;"">\n                                <div style=""text-align: center;"">\n                                    <div style=""font-size: 20px; font-weight: bold; margin-bottom: 15px; color: #28a745;"">Object A (Your Choice)</div>\n                                    <video id=""video1"" src=""/general_assets/videos_familiarobjs/File 5.mp4"" \n                                           style=""width: 350px; height: 250px; object-fit: cover; border-radius: 8px; border: 4px solid #28a745;""\n                                           muted autoplay loop>\n                                    </video>\n                                </div>\n                                \n                                <div style=""text-align: center;"">\n                                    <div style=""font-size: 20px; font-weight: bold; margin-bottom: 15px; color: #8C1515;"">Object B</div>\n                                    <video id=""video2"" src=""/general_assets/videos_familiarobjs/File 22.mp4"" \n                                           style=""width: 350px; height: 250px; object-fit: cover; border-radius: 8px; border: 2px solid #8C1515;""\n                                           muted autoplay loop>\n                                    </video>\n                                </div>\n                            </div>\n                            \n                            <div style=""margin-top: 40px; max-width: 800px; margin-left: auto; margin-right: auto;"">\n                                <h3 style=""font-size: 22px; margin-bottom: 20px; color: #333;"">\n                                    Please explain why you chose Object A as more complex:\n                                </h3>\n                                <textarea id=""explanation-text"" \n                                          placeholder=""Type your explanation here..."" \n                                          style=""width: 100%; height: 150px; padding: 20px; border: 2px solid #8C1515; border-radius: 8px; font-size: 16px; font-family: Arial, sans-serif; resize: vertical; box-sizing: border-box;""\n                                          required></textarea>\n                            </div>\n                        </div>\n                    ",,,,File 5.mp4,File 22.mp4,"Object A is more complex since it contains glue, which performs an action all of its own. Object B is an empty container. "
6895363760c1d27b582a0f49,5737,comparison_trial,14,287027,0,6310d1ed7f4d3049ba540f3c,68953131762dbff38dcaae6a,68953498e55c19b3dd6cd0e5,0,1,"\n                        <div style=""text-align: center; padding: 20px; max-width: 1000px; margin: 0 auto;"">\n                            <h2 style=""font-size: 28px; margin-bottom: 40px; color: #333;"">\n                                Which object is more complex?\n                            </h2>\n                            \n                            <div style=""display: flex; justify-content: center; align-items: flex-start; gap: 60px; margin: 40px 0;"">\n                                <div style=""text-align: center;"">\n                                    <div style=""font-size: 20px; font-weight: bold; margin-bottom: 15px; color: #8C1515;"">Object A</div>\n                                    <video id=""video1"" src=""/general_assets/videos_familiarobjs/File 4.mp4"" \n                                           style=""width: 350px; height: 250px; object-fit: cover; border-radius: 8px; border: 2px solid #8C1515;""\n                                           muted loop>\n                                    </video>\n                                </div>\n                                \n                                <div style=""text-align: center;"">\n                                    <div style=""font-size: 20px; font-weight: bold; margin-bottom: 15px; color: #8C1515;"">Object B</div>\n                                    <video id=""video2"" src=""/general_assets/videos_familiarobjs/File 27.mp4"" \n                                           style=""width: 350px; height: 250px; object-fit: cover; border-radius: 8px; border: 2px solid #8C1515;""\n                                           muted loop>\n                                    </video>\n                                </div>\n                            </div>\n                            \n                            <p id=""instruction-text"" style=""margin-top: 30px; font-size: 18px; color: #666; max-width: 600px; margin-left: auto; margin-right: auto;"">\n                                Please wait for both videos to finish playing before making your choice.\n                            </p>\n                            \n                            <div id=""explanation-section"" style=""display: none; margin-top: 30px;"">\n                                <h3 style=""font-size: 22px; margin-bottom: 20px; color: #333;"">Please explain your choice:</h3>\n                                <textarea id=""explanation-text"" \n                                          placeholder=""Type your explanation here..."" \n                                          style=""width: 80%; max-width: 600px; height: 120px; padding: 15px; border: 2px solid #8C1515; border-radius: 8px; font-size: 16px; font-family: Arial, sans-serif; resize: vertical;""\n                                          required></textarea>\n                                <br><br>\n                                <button id=""submit-explanation"" class=""jspsych-btn"" style=""font-size: 18px; padding: 15px 30px; background-color: #8C1515; color: white; border: none; border-radius: 8px; cursor: pointer; min-width: 200px;"">\n                                    Continue\n                                </button>\n                            </div>\n                        </div>\n                    ",main_experiment,File 27.mp4,Object B,File 4.mp4,File 27.mp4,
6895363760c1d27b582a0f4b,37365,explanation_trial,15,324395,0,6310d1ed7f4d3049ba540f3c,68953131762dbff38dcaae6a,68953498e55c19b3dd6cd0e5,0,0,"\n                        <div style=""text-align: center; padding: 20px; max-width: 1000px; margin: 0 auto;"">\n                            <h2 style=""font-size: 28px; margin-bottom: 40px; color: #333;"">\n                                Explain Your Choice\n                            </h2>\n                            \n                            <div style=""display: flex; justify-content: center; align-items: flex-start; gap: 60px; margin: 40px 0;"">\n                                <div style=""text-align: center;"">\n                                    <div style=""font-size: 20px; font-weight: bold; margin-bottom: 15px; color: #8C1515;"">Object A</div>\n                                    <video id=""video1"" src=""/general_assets/videos_familiarobjs/File 4.mp4"" \n                                           style=""width: 350px; height: 250px; object-fit: cover; border-radius: 8px; border: 2px solid #8C1515;""\n                                           muted autoplay loop>\n                                    </video>\n                                </div>\n                                \n                                <div style=""text-align: center;"">\n                                    <div style=""font-size: 20px; font-weight: bold; margin-bottom: 15px; color: #28a745;"">Object B (Your Choice)</div>\n                                    <video id=""video2"" src=""/general_assets/videos_familiarobjs/File 27.mp4"" \n                                           style=""width: 350px; height: 250px; object-fit: cover; border-radius: 8px; border: 4px solid #28a745;""\n                                           muted autoplay loop>\n                                    </video>\n                                </div>\n                            </div>\n                            \n                            <div style=""margin-top: 40px; max-width: 800px; margin-left: auto; margin-right: auto;"">\n                                <h3 style=""font-size: 22px; margin-bottom: 20px; color: #333;"">\n                                    Please explain why you chose Object B as more complex:\n                                </h3>\n                                <textarea id=""explanation-text"" \n                                          placeholder=""Type your explanation here..."" \n                                          style=""width: 100%; height: 150px; padding: 20px; border: 2px solid #8C1515; border-radius: 8px; font-size: 16px; font-family: Arial, sans-serif; resize: vertical; box-sizing: border-box;""\n                                          required></textarea>\n                            </div>\n                        </div>\n                    ",,,,File 4.mp4,File 27.mp4,Object B is more complex since it connects to a complex piece of technology to perform an action. Object A is a solid piece that may or may not do anything. 
6895363760c1d27b582a0f4d,5944,comparison_trial,16,330343,0,6310d1ed7f4d3049ba540f3c,68953131762dbff38dcaae6a,68953498e55c19b3dd6cd0e5,0,1,"\n                        <div style=""text-align: center; padding: 20px; max-width: 1000px; margin: 0 auto;"">\n                            <h2 style=""font-size: 28px; margin-bottom: 40px; color: #333;"">\n                                Which object is more complex?\n                            </h2>\n                            \n                            <div style=""display: flex; justify-content: center; align-items: flex-start; gap: 60px; margin: 40px 0;"">\n                                <div style=""text-align: center;"">\n                                    <div style=""font-size: 20px; font-weight: bold; margin-bottom: 15px; color: #8C1515;"">Object A</div>\n                                    <video id=""video1"" src=""/general_assets/videos_familiarobjs/File 7.mp4"" \n                                           style=""width: 350px; height: 250px; object-fit: cover; border-radius: 8px; border: 2px solid #8C1515;""\n                                           muted loop>\n                                    </video>\n                                </div>\n                                \n                                <div style=""text-align: center;"">\n                                    <div style=""font-size: 20px; font-weight: bold; margin-bottom: 15px; color: #8C1515;"">Object B</div>\n                                    <video id=""video2"" src=""/general_assets/videos_familiarobjs/File 17.mp4"" \n                                           style=""width: 350px; height: 250px; object-fit: cover; border-radius: 8px; border: 2px solid #8C1515;""\n                                           muted loop>\n                                    </video>\n                                </div>\n                            </div>\n                            \n                            <p id=""instruction-text"" style=""margin-top: 30px; font-size: 18px; color: #666; max-width: 600px; margin-left: auto; margin-right: auto;"">\n                                Please wait for both videos to finish playing before making your choice.\n                            </p>\n                            \n                            <div id=""explanation-section"" style=""display: none; margin-top: 30px;"">\n                                <h3 style=""font-size: 22px; margin-bottom: 20px; color: #333;"">Please explain your choice:</h3>\n                                <textarea id=""explanation-text"" \n                                          placeholder=""Type your explanation here..."" \n                                          style=""width: 80%; max-width: 600px; height: 120px; padding: 15px; border: 2px solid #8C1515; border-radius: 8px; font-size: 16px; font-family: Arial, sans-serif; resize: vertical;""\n                                          required></textarea>\n                                <br><br>\n                                <button id=""submit-explanation"" class=""jspsych-btn"" style=""font-size: 18px; padding: 15px 30px; background-color: #8C1515; color: white; border: none; border-radius: 8px; cursor: pointer; min-width: 200px;"">\n                                    Continue\n                                </button>\n                            </div>\n                        </div>\n                    ",main_experiment,File 17.mp4,Object B,File 7.mp4,File 17.mp4,
6895363760c1d27b582a0f4f,17193,explanation_trial,17,347540,0,6310d1ed7f4d3049ba540f3c,68953131762dbff38dcaae6a,68953498e55c19b3dd6cd0e5,0,0,"\n                        <div style=""text-align: center; padding: 20px; max-width: 1000px; margin: 0 auto;"">\n                            <h2 style=""font-size: 28px; margin-bottom: 40px; color: #333;"">\n                                Explain Your Choice\n                            </h2>\n                            \n                            <div style=""display: flex; justify-content: center; align-items: flex-start; gap: 60px; margin: 40px 0;"">\n                                <div style=""text-align: center;"">\n                                    <div style=""font-size: 20px; font-weight: bold; margin-bottom: 15px; color: #8C1515;"">Object A</div>\n                                    <video id=""video1"" src=""/general_assets/videos_familiarobjs/File 7.mp4"" \n                                           style=""width: 350px; height: 250px; object-fit: cover; border-radius: 8px; border: 2px solid #8C1515;""\n                                           muted autoplay loop>\n                                    </video>\n                                </div>\n                                \n                                <div style=""text-align: center;"">\n                                    <div style=""font-size: 20px; font-weight: bold; margin-bottom: 15px; color: #28a745;"">Object B (Your Choice)</div>\n                                    <video id=""video2"" src=""/general_assets/videos_familiarobjs/File 17.mp4"" \n                                           style=""width: 350px; height: 250px; object-fit: cover; border-radius: 8px; border: 4px solid #28a745;""\n                                           muted autoplay loop>\n                                    </video>\n                                </div>\n                            </div>\n                            \n                            <div style=""margin-top: 40px; max-width: 800px; margin-left: auto; margin-right: auto;"">\n                                <h3 style=""font-size: 22px; margin-bottom: 20px; color: #333;"">\n                                    Please explain why you chose Object B as more complex:\n                                </h3>\n                                <textarea id=""explanation-text"" \n                                          placeholder=""Type your explanation here..."" \n                                          style=""width: 100%; height: 150px; padding: 20px; border: 2px solid #8C1515; border-radius: 8px; font-size: 16px; font-family: Arial, sans-serif; resize: vertical; box-sizing: border-box;""\n                                          required></textarea>\n                            </div>\n                        </div>\n                    ",,,,File 7.mp4,File 17.mp4,Object B is high tech and modern. Object A has been around for quite some time. 
6895363760c1d27b582a0f51,6819,comparison_trial,18,354363,0,6310d1ed7f4d3049ba540f3c,68953131762dbff38dcaae6a,68953498e55c19b3dd6cd0e5,0,0,"\n                        <div style=""text-align: center; padding: 20px; max-width: 1000px; margin: 0 auto;"">\n                            <h2 style=""font-size: 28px; margin-bottom: 40px; color: #333;"">\n                                Which object is more complex?\n                            </h2>\n                            \n                            <div style=""display: flex; justify-content: center; align-items: flex-start; gap: 60px; margin: 40px 0;"">\n                                <div style=""text-align: center;"">\n                                    <div style=""font-size: 20px; font-weight: bold; margin-bottom: 15px; color: #8C1515;"">Object A</div>\n                                    <video id=""video1"" src=""/general_assets/videos_familiarobjs/File 28.mp4"" \n                                           style=""width: 350px; height: 250px; object-fit: cover; border-radius: 8px; border: 2px solid #8C1515;""\n                                           muted loop>\n                                    </video>\n                                </div>\n                                \n                                <div style=""text-align: center;"">\n                                    <div style=""font-size: 20px; font-weight: bold; margin-bottom: 15px; color: #8C1515;"">Object B</div>\n                                    <video id=""video2"" src=""/general_assets/videos_familiarobjs/File 20.mp4"" \n                                           style=""width: 350px; height: 250px; object-fit: cover; border-radius: 8px; border: 2px solid #8C1515;""\n                                           muted loop>\n                                    </video>\n                                </div>\n                            </div>\n                            \n                            <p id=""instruction-text"" style=""margin-top: 30px; font-size: 18px; color: #666; max-width: 600px; margin-left: auto; margin-right: auto;"">\n                                Please wait for both videos to finish playing before making your choice.\n                            </p>\n                            \n                            <div id=""explanation-section"" style=""display: none; margin-top: 30px;"">\n                                <h3 style=""font-size: 22px; margin-bottom: 20px; color: #333;"">Please explain your choice:</h3>\n                                <textarea id=""explanation-text"" \n                                          placeholder=""Type your explanation here..."" \n                                          style=""width: 80%; max-width: 600px; height: 120px; padding: 15px; border: 2px solid #8C1515; border-radius: 8px; font-size: 16px; font-family: Arial, sans-serif; resize: vertical;""\n                                          required></textarea>\n                                <br><br>\n                                <button id=""submit-explanation"" class=""jspsych-btn"" style=""font-size: 18px; padding: 15px 30px; background-color: #8C1515; color: white; border: none; border-radius: 8px; cursor: pointer; min-width: 200px;"">\n                                    Continue\n                                </button>\n                            </div>\n                        </div>\n                    ",main_experiment,File 28.mp4,Object A,File 28.mp4,File 20.mp4,
6895363760c1d27b582a0f53,17266,explanation_trial,19,371633,0,6310d1ed7f4d3049ba540f3c,68953131762dbff38dcaae6a,68953498e55c19b3dd6cd0e5,0,0,"\n                        <div style=""text-align: center; padding: 20px; max-width: 1000px; margin: 0 auto;"">\n                            <h2 style=""font-size: 28px; margin-bottom: 40px; color: #333;"">\n                                Explain Your Choice\n                            </h2>\n                            \n                            <div style=""display: flex; justify-content: center; align-items: flex-start; gap: 60px; margin: 40px 0;"">\n                                <div style=""text-align: center;"">\n                                    <div style=""font-size: 20px; font-weight: bold; margin-bottom: 15px; color: #28a745;"">Object A (Your Choice)</div>\n                                    <video id=""video1"" src=""/general_assets/videos_familiarobjs/File 28.mp4"" \n                                           style=""width: 350px; height: 250px; object-fit: cover; border-radius: 8px; border: 4px solid #28a745;""\n                                           muted autoplay loop>\n                                    </video>\n                                </div>\n                                \n                                <div style=""text-align: center;"">\n                                    <div style=""font-size: 20px; font-weight: bold; margin-bottom: 15px; color: #8C1515;"">Object B</div>\n                                    <video id=""video2"" src=""/general_assets/videos_familiarobjs/File 20.mp4"" \n                                           style=""width: 350px; height: 250px; object-fit: cover; border-radius: 8px; border: 2px solid #8C1515;""\n                                           muted autoplay loop>\n                                    </video>\n                                </div>\n                            </div>\n                            \n                            <div style=""margin-top: 40px; max-width: 800px; margin-left: auto; margin-right: auto;"">\n                                <h3 style=""font-size: 22px; margin-bottom: 20px; color: #333;"">\n                                    Please explain why you chose Object A as more complex:\n                                </h3>\n                                <textarea id=""explanation-text"" \n                                          placeholder=""Type your explanation here..."" \n                                          style=""width: 100%; height: 150px; padding: 20px; border: 2px solid #8C1515; border-radius: 8px; font-size: 16px; font-family: Arial, sans-serif; resize: vertical; box-sizing: border-box;""\n                                          required></textarea>\n                            </div>\n                        </div>\n                    ",,,,File 28.mp4,File 20.mp4,Object A is more complex since it is often difficult to open/use. 
6895363760c1d27b582a0f55,22517,explanation_trial,21,403089,0,6310d1ed7f4d3049ba540f3c,68953131762dbff38dcaae6a,68953498e55c19b3dd6cd0e5,0,0,"\n                        <div style=""text-align: center; padding: 20px; max-width: 1000px; margin: 0 auto;"">\n                            <h2 style=""font-size: 28px; margin-bottom: 40px; color: #333;"">\n                                Explain Your Choice\n                            </h2>\n                            \n                            <div style=""display: flex; justify-content: center; align-items: flex-start; gap: 60px; margin: 40px 0;"">\n                                <div style=""text-align: center;"">\n                                    <div style=""font-size: 20px; font-weight: bold; margin-bottom: 15px; color: #8C1515;"">Object A</div>\n                                    <video id=""video1"" src=""/general_assets/videos_familiarobjs/File 11.mp4"" \n                                           style=""width: 350px; height: 250px; object-fit: cover; border-radius: 8px; border: 2px solid #8C1515;""\n                                           muted autoplay loop>\n                                    </video>\n                                </div>\n                                \n                                <div style=""text-align: center;"">\n                                    <div style=""font-size: 20px; font-weight: bold; margin-bottom: 15px; color: #28a745;"">Object B (Your Choice)</div>\n                                    <video id=""video2"" src=""/general_assets/videos_familiarobjs/File 13.mp4"" \n                                           style=""width: 350px; height: 250px; object-fit: cover; border-radius: 8px; border: 4px solid #28a745;""\n                                           muted autoplay loop>\n                                    </video>\n                                </div>\n                            </div>\n                            \n                            <div style=""margin-top: 40px; max-width: 800px; margin-left: auto; margin-right: auto;"">\n                                <h3 style=""font-size: 22px; margin-bottom: 20px; color: #333;"">\n                                    Please explain why you chose Object B as more complex:\n                                </h3>\n                                <textarea id=""explanation-text"" \n                                          placeholder=""Type your explanation here..."" \n                                          style=""width: 100%; height: 150px; padding: 20px; border: 2px solid #8C1515; border-radius: 8px; font-size: 16px; font-family: Arial, sans-serif; resize: vertical; box-sizing: border-box;""\n                                          required></textarea>\n                            </div>\n                        </div>\n                    ",,,,File 11.mp4,File 13.mp4,I'm assuming that Object B is more complex since I'm not even sure what it is...\nObject A just holds something. 
6895363760c1d27b582a0f57,8929,comparison_trial,20,380569,0,6310d1ed7f4d3049ba540f3c,68953131762dbff38dcaae6a,68953498e55c19b3dd6cd0e5,0,1,"\n                        <div style=""text-align: center; padding: 20px; max-width: 1000px; margin: 0 auto;"">\n                            <h2 style=""font-size: 28px; margin-bottom: 40px; color: #333;"">\n                                Which object is more complex?\n                            </h2>\n                            \n                            <div style=""display: flex; justify-content: center; align-items: flex-start; gap: 60px; margin: 40px 0;"">\n                                <div style=""text-align: center;"">\n                                    <div style=""font-size: 20px; font-weight: bold; margin-bottom: 15px; color: #8C1515;"">Object A</div>\n                                    <video id=""video1"" src=""/general_assets/videos_familiarobjs/File 11.mp4"" \n                                           style=""width: 350px; height: 250px; object-fit: cover; border-radius: 8px; border: 2px solid #8C1515;""\n                                           muted loop>\n                                    </video>\n                                </div>\n                                \n                                <div style=""text-align: center;"">\n                                    <div style=""font-size: 20px; font-weight: bold; margin-bottom: 15px; color: #8C1515;"">Object B</div>\n                                    <video id=""video2"" src=""/general_assets/videos_familiarobjs/File 13.mp4"" \n                                           style=""width: 350px; height: 250px; object-fit: cover; border-radius: 8px; border: 2px solid #8C1515;""\n                                           muted loop>\n                                    </video>\n                                </div>\n                            </div>\n                            \n                            <p id=""instruction-text"" style=""margin-top: 30px; font-size: 18px; color: #666; max-width: 600px; margin-left: auto; margin-right: auto;"">\n                                Please wait for both videos to finish playing before making your choice.\n                            </p>\n                            \n                            <div id=""explanation-section"" style=""display: none; margin-top: 30px;"">\n                                <h3 style=""font-size: 22px; margin-bottom: 20px; color: #333;"">Please explain your choice:</h3>\n                                <textarea id=""explanation-text"" \n                                          placeholder=""Type your explanation here..."" \n                                          style=""width: 80%; max-width: 600px; height: 120px; padding: 15px; border: 2px solid #8C1515; border-radius: 8px; font-size: 16px; font-family: Arial, sans-serif; resize: vertical;""\n                                          required></textarea>\n                                <br><br>\n                                <button id=""submit-explanation"" class=""jspsych-btn"" style=""font-size: 18px; padding: 15px 30px; background-color: #8C1515; color: white; border: none; border-radius: 8px; cursor: pointer; min-width: 200px;"">\n                                    Continue\n                                </button>\n                            </div>\n                        </div>\n                    ",main_experiment,File 13.mp4,Object B,File 11.mp4,File 13.mp4,
6895363760c1d27b582a0f59,2782,instructions,22,405873,0,6310d1ed7f4d3049ba540f3c,68953131762dbff38dcaae6a,68953498e55c19b3dd6cd0e5,0,,,,,,,,
6895364060c1d27b582a0f5b,1883,instructions,0,1885,0,5be2dab1dc5b8d0001ce18a9,68953131762dbff38dcaae6a,689533b8b0e973258bfb6b26,0,,,,,,,,
6895364060c1d27b582a0f5d,25704,instructions,1,27591,0,5be2dab1dc5b8d0001ce18a9,68953131762dbff38dcaae6a,689533b8b0e973258bfb6b26,0,,,,,,,,
6895364060c1d27b582a0f5f,12749,comparison_trial,4,107375,0,5be2dab1dc5b8d0001ce18a9,68953131762dbff38dcaae6a,689533b8b0e973258bfb6b26,0,0,"\n                        <div style=""text-align: center; padding: 20px; max-width: 1000px; margin: 0 auto;"">\n                            <h2 style=""font-size: 28px; margin-bottom: 40px; color: #333;"">\n                                Which object is more complex?\n                            </h2>\n                            \n                            <div style=""display: flex; justify-content: center; align-items: flex-start; gap: 60px; margin: 40px 0;"">\n                                <div style=""text-align: center;"">\n                                    <div style=""font-size: 20px; font-weight: bold; margin-bottom: 15px; color: #8C1515;"">Object A</div>\n                                    <video id=""video1"" src=""/general_assets/videos_familiarobjs/File 8.mp4"" \n                                           style=""width: 350px; height: 250px; object-fit: cover; border-radius: 8px; border: 2px solid #8C1515;""\n                                           muted loop>\n                                    </video>\n                                </div>\n                                \n                                <div style=""text-align: center;"">\n                                    <div style=""font-size: 20px; font-weight: bold; margin-bottom: 15px; color: #8C1515;"">Object B</div>\n                                    <video id=""video2"" src=""/general_assets/videos_familiarobjs/File 9.mp4"" \n                                           style=""width: 350px; height: 250px; object-fit: cover; border-radius: 8px; border: 2px solid #8C1515;""\n                                           muted loop>\n                                    </video>\n                                </div>\n                            </div>\n                            \n                            <p id=""instruction-text"" style=""margin-top: 30px; font-size: 18px; color: #666; max-width: 600px; margin-left: auto; margin-right: auto;"">\n                                Please wait for both videos to finish playing before making your choice.\n                            </p>\n                            \n                            <div id=""explanation-section"" style=""display: none; margin-top: 30px;"">\n                                <h3 style=""font-size: 22px; margin-bottom: 20px; color: #333;"">Please explain your choice:</h3>\n                                <textarea id=""explanation-text"" \n                                          placeholder=""Type your explanation here..."" \n                                          style=""width: 80%; max-width: 600px; height: 120px; padding: 15px; border: 2px solid #8C1515; border-radius: 8px; font-size: 16px; font-family: Arial, sans-serif; resize: vertical;""\n                                          required></textarea>\n                                <br><br>\n                                <button id=""submit-explanation"" class=""jspsych-btn"" style=""font-size: 18px; padding: 15px 30px; background-color: #8C1515; color: white; border: none; border-radius: 8px; cursor: pointer; min-width: 200px;"">\n                                    Continue\n                                </button>\n                            </div>\n                        </div>\n                    ",main_experiment,File 8.mp4,Object A,File 8.mp4,File 9.mp4,
6895364060c1d27b582a0f61,51523,explanation_trial,3,94622,0,5be2dab1dc5b8d0001ce18a9,68953131762dbff38dcaae6a,689533b8b0e973258bfb6b26,0,0,"\n                        <div style=""text-align: center; padding: 20px; max-width: 1000px; margin: 0 auto;"">\n                            <h2 style=""font-size: 28px; margin-bottom: 40px; color: #333;"">\n                                Explain Your Choice\n                            </h2>\n                            \n                            <div style=""display: flex; justify-content: center; align-items: flex-start; gap: 60px; margin: 40px 0;"">\n                                <div style=""text-align: center;"">\n                                    <div style=""font-size: 20px; font-weight: bold; margin-bottom: 15px; color: #28a745;"">Object A (Your Choice)</div>\n                                    <video id=""video1"" src=""/general_assets/videos_familiarobjs/File 5.mp4"" \n                                           style=""width: 350px; height: 250px; object-fit: cover; border-radius: 8px; border: 4px solid #28a745;""\n                                           muted autoplay loop>\n                                    </video>\n                                </div>\n                                \n                                <div style=""text-align: center;"">\n                                    <div style=""font-size: 20px; font-weight: bold; margin-bottom: 15px; color: #8C1515;"">Object B</div>\n                                    <video id=""video2"" src=""/general_assets/videos_familiarobjs/File 2.mp4"" \n                                           style=""width: 350px; height: 250px; object-fit: cover; border-radius: 8px; border: 2px solid #8C1515;""\n                                           muted autoplay loop>\n                                    </video>\n                                </div>\n                            </div>\n                            \n                            <div style=""margin-top: 40px; max-width: 800px; margin-left: auto; margin-right: auto;"">\n                                <h3 style=""font-size: 22px; margin-bottom: 20px; color: #333;"">\n                                    Please explain why you chose Object A as more complex:\n                                </h3>\n                                <textarea id=""explanation-text"" \n                                          placeholder=""Type your explanation here..."" \n                                          style=""width: 100%; height: 150px; padding: 20px; border: 2px solid #8C1515; border-radius: 8px; font-size: 16px; font-family: Arial, sans-serif; resize: vertical; box-sizing: border-box;""\n                                          required></textarea>\n                            </div>\n                        </div>\n                    ",,,,File 5.mp4,File 2.mp4,Object A has more rounded edges and smaller pieces
6895364060c1d27b582a0f63,15498,comparison_trial,2,43094,0,5be2dab1dc5b8d0001ce18a9,68953131762dbff38dcaae6a,689533b8b0e973258bfb6b26,0,0,"\n                        <div style=""text-align: center; padding: 20px; max-width: 1000px; margin: 0 auto;"">\n                            <h2 style=""font-size: 28px; margin-bottom: 40px; color: #333;"">\n                                Which object is more complex?\n                            </h2>\n                            \n                            <div style=""display: flex; justify-content: center; align-items: flex-start; gap: 60px; margin: 40px 0;"">\n                                <div style=""text-align: center;"">\n                                    <div style=""font-size: 20px; font-weight: bold; margin-bottom: 15px; color: #8C1515;"">Object A</div>\n                                    <video id=""video1"" src=""/general_assets/videos_familiarobjs/File 5.mp4"" \n                                           style=""width: 350px; height: 250px; object-fit: cover; border-radius: 8px; border: 2px solid #8C1515;""\n                                           muted loop>\n                                    </video>\n                                </div>\n                                \n                                <div style=""text-align: center;"">\n                                    <div style=""font-size: 20px; font-weight: bold; margin-bottom: 15px; color: #8C1515;"">Object B</div>\n                                    <video id=""video2"" src=""/general_assets/videos_familiarobjs/File 2.mp4"" \n                                           style=""width: 350px; height: 250px; object-fit: cover; border-radius: 8px; border: 2px solid #8C1515;""\n                                           muted loop>\n                                    </video>\n                                </div>\n                            </div>\n                            \n                            <p id=""instruction-text"" style=""margin-top: 30px; font-size: 18px; color: #666; max-width: 600px; margin-left: auto; margin-right: auto;"">\n                                Please wait for both videos to finish playing before making your choice.\n                            </p>\n                            \n                            <div id=""explanation-section"" style=""display: none; margin-top: 30px;"">\n                                <h3 style=""font-size: 22px; margin-bottom: 20px; color: #333;"">Please explain your choice:</h3>\n                                <textarea id=""explanation-text"" \n                                          placeholder=""Type your explanation here..."" \n                                          style=""width: 80%; max-width: 600px; height: 120px; padding: 15px; border: 2px solid #8C1515; border-radius: 8px; font-size: 16px; font-family: Arial, sans-serif; resize: vertical;""\n                                          required></textarea>\n                                <br><br>\n                                <button id=""submit-explanation"" class=""jspsych-btn"" style=""font-size: 18px; padding: 15px 30px; background-color: #8C1515; color: white; border: none; border-radius: 8px; cursor: pointer; min-width: 200px;"">\n                                    Continue\n                                </button>\n                            </div>\n                        </div>\n                    ",main_experiment,File 5.mp4,Object A,File 5.mp4,File 2.mp4,
6895364060c1d27b582a0f65,44454,explanation_trial,5,151833,0,5be2dab1dc5b8d0001ce18a9,68953131762dbff38dcaae6a,689533b8b0e973258bfb6b26,0,0,"\n                        <div style=""text-align: center; padding: 20px; max-width: 1000px; margin: 0 auto;"">\n                            <h2 style=""font-size: 28px; margin-bottom: 40px; color: #333;"">\n                                Explain Your Choice\n                            </h2>\n                            \n                            <div style=""display: flex; justify-content: center; align-items: flex-start; gap: 60px; margin: 40px 0;"">\n                                <div style=""text-align: center;"">\n                                    <div style=""font-size: 20px; font-weight: bold; margin-bottom: 15px; color: #28a745;"">Object A (Your Choice)</div>\n                                    <video id=""video1"" src=""/general_assets/videos_familiarobjs/File 8.mp4"" \n                                           style=""width: 350px; height: 250px; object-fit: cover; border-radius: 8px; border: 4px solid #28a745;""\n                                           muted autoplay loop>\n                                    </video>\n                                </div>\n                                \n                                <div style=""text-align: center;"">\n                                    <div style=""font-size: 20px; font-weight: bold; margin-bottom: 15px; color: #8C1515;"">Object B</div>\n                                    <video id=""video2"" src=""/general_assets/videos_familiarobjs/File 9.mp4"" \n                                           style=""width: 350px; height: 250px; object-fit: cover; border-radius: 8px; border: 2px solid #8C1515;""\n                                           muted autoplay loop>\n                                    </video>\n                                </div>\n                            </div>\n                            \n                            <div style=""margin-top: 40px; max-width: 800px; margin-left: auto; margin-right: auto;"">\n                                <h3 style=""font-size: 22px; margin-bottom: 20px; color: #333;"">\n                                    Please explain why you chose Object A as more complex:\n                                </h3>\n                                <textarea id=""explanation-text"" \n                                          placeholder=""Type your explanation here..."" \n                                          style=""width: 100%; height: 150px; padding: 20px; border: 2px solid #8C1515; border-radius: 8px; font-size: 16px; font-family: Arial, sans-serif; resize: vertical; box-sizing: border-box;""\n                                          required></textarea>\n                            </div>\n                        </div>\n                    ",,,,File 8.mp4,File 9.mp4,"Object A seems to have more elements to it, an attachment, a taper shape, a flat portion, a cut out section."
6895364060c1d27b582a0f67,23616,comparison_trial,6,175454,0,5be2dab1dc5b8d0001ce18a9,68953131762dbff38dcaae6a,689533b8b0e973258bfb6b26,0,0,"\n                        <div style=""text-align: center; padding: 20px; max-width: 1000px; margin: 0 auto;"">\n                            <h2 style=""font-size: 28px; margin-bottom: 40px; color: #333;"">\n                                Which object is more complex?\n                            </h2>\n                            \n                            <div style=""display: flex; justify-content: center; align-items: flex-start; gap: 60px; margin: 40px 0;"">\n                                <div style=""text-align: center;"">\n                                    <div style=""font-size: 20px; font-weight: bold; margin-bottom: 15px; color: #8C1515;"">Object A</div>\n                                    <video id=""video1"" src=""/general_assets/videos_familiarobjs/File 3.mp4"" \n                                           style=""width: 350px; height: 250px; object-fit: cover; border-radius: 8px; border: 2px solid #8C1515;""\n                                           muted loop>\n                                    </video>\n                                </div>\n                                \n                                <div style=""text-align: center;"">\n                                    <div style=""font-size: 20px; font-weight: bold; margin-bottom: 15px; color: #8C1515;"">Object B</div>\n                                    <video id=""video2"" src=""/general_assets/videos_familiarobjs/File 10.mp4"" \n                                           style=""width: 350px; height: 250px; object-fit: cover; border-radius: 8px; border: 2px solid #8C1515;""\n                                           muted loop>\n                                    </video>\n                                </div>\n                            </div>\n                            \n                            <p id=""instruction-text"" style=""margin-top: 30px; font-size: 18px; color: #666; max-width: 600px; margin-left: auto; margin-right: auto;"">\n                                Please wait for both videos to finish playing before making your choice.\n                            </p>\n                            \n                            <div id=""explanation-section"" style=""display: none; margin-top: 30px;"">\n                                <h3 style=""font-size: 22px; margin-bottom: 20px; color: #333;"">Please explain your choice:</h3>\n                                <textarea id=""explanation-text"" \n                                          placeholder=""Type your explanation here..."" \n                                          style=""width: 80%; max-width: 600px; height: 120px; padding: 15px; border: 2px solid #8C1515; border-radius: 8px; font-size: 16px; font-family: Arial, sans-serif; resize: vertical;""\n                                          required></textarea>\n                                <br><br>\n                                <button id=""submit-explanation"" class=""jspsych-btn"" style=""font-size: 18px; padding: 15px 30px; background-color: #8C1515; color: white; border: none; border-radius: 8px; cursor: pointer; min-width: 200px;"">\n                                    Continue\n                                </button>\n                            </div>\n                        </div>\n                    ",main_experiment,File 3.mp4,Object A,File 3.mp4,File 10.mp4,
6895364160c1d27b582a0f69,43440,explanation_trial,11,383562,0,5be2dab1dc5b8d0001ce18a9,68953131762dbff38dcaae6a,689533b8b0e973258bfb6b26,0,0,"\n                        <div style=""text-align: center; padding: 20px; max-width: 1000px; margin: 0 auto;"">\n                            <h2 style=""font-size: 28px; margin-bottom: 40px; color: #333;"">\n                                Explain Your Choice\n                            </h2>\n                            \n                            <div style=""display: flex; justify-content: center; align-items: flex-start; gap: 60px; margin: 40px 0;"">\n                                <div style=""text-align: center;"">\n                                    <div style=""font-size: 20px; font-weight: bold; margin-bottom: 15px; color: #8C1515;"">Object A</div>\n                                    <video id=""video1"" src=""/general_assets/videos_familiarobjs/File 9.mp4"" \n                                           style=""width: 350px; height: 250px; object-fit: cover; border-radius: 8px; border: 2px solid #8C1515;""\n                                           muted autoplay loop>\n                                    </video>\n                                </div>\n                                \n                                <div style=""text-align: center;"">\n                                    <div style=""font-size: 20px; font-weight: bold; margin-bottom: 15px; color: #28a745;"">Object B (Your Choice)</div>\n                                    <video id=""video2"" src=""/general_assets/videos_familiarobjs/File 10.mp4"" \n                                           style=""width: 350px; height: 250px; object-fit: cover; border-radius: 8px; border: 4px solid #28a745;""\n                                           muted autoplay loop>\n                                    </video>\n                                </div>\n                            </div>\n                            \n                            <div style=""margin-top: 40px; max-width: 800px; margin-left: auto; margin-right: auto;"">\n                                <h3 style=""font-size: 22px; margin-bottom: 20px; color: #333;"">\n                                    Please explain why you chose Object B as more complex:\n                                </h3>\n                                <textarea id=""explanation-text"" \n                                          placeholder=""Type your explanation here..."" \n                                          style=""width: 100%; height: 150px; padding: 20px; border: 2px solid #8C1515; border-radius: 8px; font-size: 16px; font-family: Arial, sans-serif; resize: vertical; box-sizing: border-box;""\n                                          required></textarea>\n                            </div>\n                        </div>\n                    ",,,,File 9.mp4,File 10.mp4,"Object B has more textures, more pieces, a mechanism/hinge."
6895364160c1d27b582a0f6b,7731,comparison_trial,12,391297,0,5be2dab1dc5b8d0001ce18a9,68953131762dbff38dcaae6a,689533b8b0e973258bfb6b26,0,1,"\n                        <div style=""text-align: center; padding: 20px; max-width: 1000px; margin: 0 auto;"">\n                            <h2 style=""font-size: 28px; margin-bottom: 40px; color: #333;"">\n                                Which object is more complex?\n                            </h2>\n                            \n                            <div style=""display: flex; justify-content: center; align-items: flex-start; gap: 60px; margin: 40px 0;"">\n                                <div style=""text-align: center;"">\n                                    <div style=""font-size: 20px; font-weight: bold; margin-bottom: 15px; color: #8C1515;"">Object A</div>\n                                    <video id=""video1"" src=""/general_assets/videos_familiarobjs/File 24.mp4"" \n                                           style=""width: 350px; height: 250px; object-fit: cover; border-radius: 8px; border: 2px solid #8C1515;""\n                                           muted loop>\n                                    </video>\n                                </div>\n                                \n                                <div style=""text-align: center;"">\n                                    <div style=""font-size: 20px; font-weight: bold; margin-bottom: 15px; color: #8C1515;"">Object B</div>\n                                    <video id=""video2"" src=""/general_assets/videos_familiarobjs/File 18.mp4"" \n                                           style=""width: 350px; height: 250px; object-fit: cover; border-radius: 8px; border: 2px solid #8C1515;""\n                                           muted loop>\n                                    </video>\n                                </div>\n                            </div>\n                            \n                            <p id=""instruction-text"" style=""margin-top: 30px; font-size: 18px; color: #666; max-width: 600px; margin-left: auto; margin-right: auto;"">\n                                Please wait for both videos to finish playing before making your choice.\n                            </p>\n                            \n                            <div id=""explanation-section"" style=""display: none; margin-top: 30px;"">\n                                <h3 style=""font-size: 22px; margin-bottom: 20px; color: #333;"">Please explain your choice:</h3>\n                                <textarea id=""explanation-text"" \n                                          placeholder=""Type your explanation here..."" \n                                          style=""width: 80%; max-width: 600px; height: 120px; padding: 15px; border: 2px solid #8C1515; border-radius: 8px; font-size: 16px; font-family: Arial, sans-serif; resize: vertical;""\n                                          required></textarea>\n                                <br><br>\n                                <button id=""submit-explanation"" class=""jspsych-btn"" style=""font-size: 18px; padding: 15px 30px; background-color: #8C1515; color: white; border: none; border-radius: 8px; cursor: pointer; min-width: 200px;"">\n                                    Continue\n                                </button>\n                            </div>\n                        </div>\n                    ",main_experiment,File 18.mp4,Object B,File 24.mp4,File 18.mp4,
6895364160c1d27b582a0f6d,6164,comparison_trial,8,267522,0,5be2dab1dc5b8d0001ce18a9,68953131762dbff38dcaae6a,689533b8b0e973258bfb6b26,0,1,"\n                        <div style=""text-align: center; padding: 20px; max-width: 1000px; margin: 0 auto;"">\n                            <h2 style=""font-size: 28px; margin-bottom: 40px; color: #333;"">\n                                Which object is more complex?\n                            </h2>\n                            \n                            <div style=""display: flex; justify-content: center; align-items: flex-start; gap: 60px; margin: 40px 0;"">\n                                <div style=""text-align: center;"">\n                                    <div style=""font-size: 20px; font-weight: bold; margin-bottom: 15px; color: #8C1515;"">Object A</div>\n                                    <video id=""video1"" src=""/general_assets/videos_familiarobjs/File 4.mp4"" \n                                           style=""width: 350px; height: 250px; object-fit: cover; border-radius: 8px; border: 2px solid #8C1515;""\n                                           muted loop>\n                                    </video>\n                                </div>\n                                \n                                <div style=""text-align: center;"">\n                                    <div style=""font-size: 20px; font-weight: bold; margin-bottom: 15px; color: #8C1515;"">Object B</div>\n                                    <video id=""video2"" src=""/general_assets/videos_familiarobjs/File 9.mp4"" \n                                           style=""width: 350px; height: 250px; object-fit: cover; border-radius: 8px; border: 2px solid #8C1515;""\n                                           muted loop>\n                                    </video>\n                                </div>\n                            </div>\n                            \n                            <p id=""instruction-text"" style=""margin-top: 30px; font-size: 18px; color: #666; max-width: 600px; margin-left: auto; margin-right: auto;"">\n                                Please wait for both videos to finish playing before making your choice.\n                            </p>\n                            \n                            <div id=""explanation-section"" style=""display: none; margin-top: 30px;"">\n                                <h3 style=""font-size: 22px; margin-bottom: 20px; color: #333;"">Please explain your choice:</h3>\n                                <textarea id=""explanation-text"" \n                                          placeholder=""Type your explanation here..."" \n                                          style=""width: 80%; max-width: 600px; height: 120px; padding: 15px; border: 2px solid #8C1515; border-radius: 8px; font-size: 16px; font-family: Arial, sans-serif; resize: vertical;""\n                                          required></textarea>\n                                <br><br>\n                                <button id=""submit-explanation"" class=""jspsych-btn"" style=""font-size: 18px; padding: 15px 30px; background-color: #8C1515; color: white; border: none; border-radius: 8px; cursor: pointer; min-width: 200px;"">\n                                    Continue\n                                </button>\n                            </div>\n                        </div>\n                    ",main_experiment,File 9.mp4,Object B,File 4.mp4,File 9.mp4,
6895364160c1d27b582a0f6f,66493,explanation_trial,9,334020,0,5be2dab1dc5b8d0001ce18a9,68953131762dbff38dcaae6a,689533b8b0e973258bfb6b26,0,0,"\n                        <div style=""text-align: center; padding: 20px; max-width: 1000px; margin: 0 auto;"">\n                            <h2 style=""font-size: 28px; margin-bottom: 40px; color: #333;"">\n                                Explain Your Choice\n                            </h2>\n                            \n                            <div style=""display: flex; justify-content: center; align-items: flex-start; gap: 60px; margin: 40px 0;"">\n                                <div style=""text-align: center;"">\n                                    <div style=""font-size: 20px; font-weight: bold; margin-bottom: 15px; color: #8C1515;"">Object A</div>\n                                    <video id=""video1"" src=""/general_assets/videos_familiarobjs/File 4.mp4"" \n                                           style=""width: 350px; height: 250px; object-fit: cover; border-radius: 8px; border: 2px solid #8C1515;""\n                                           muted autoplay loop>\n                                    </video>\n                                </div>\n                                \n                                <div style=""text-align: center;"">\n                                    <div style=""font-size: 20px; font-weight: bold; margin-bottom: 15px; color: #28a745;"">Object B (Your Choice)</div>\n                                    <video id=""video2"" src=""/general_assets/videos_familiarobjs/File 9.mp4"" \n                                           style=""width: 350px; height: 250px; object-fit: cover; border-radius: 8px; border: 4px solid #28a745;""\n                                           muted autoplay loop>\n                                    </video>\n                                </div>\n                            </div>\n                            \n                            <div style=""margin-top: 40px; max-width: 800px; margin-left: auto; margin-right: auto;"">\n                                <h3 style=""font-size: 22px; margin-bottom: 20px; color: #333;"">\n                                    Please explain why you chose Object B as more complex:\n                                </h3>\n                                <textarea id=""explanation-text"" \n                                          placeholder=""Type your explanation here..."" \n                                          style=""width: 100%; height: 150px; padding: 20px; border: 2px solid #8C1515; border-radius: 8px; font-size: 16px; font-family: Arial, sans-serif; resize: vertical; box-sizing: border-box;""\n                                          required></textarea>\n                            </div>\n                        </div>\n                    ",,,,File 4.mp4,File 9.mp4,"Object B is circular, but contains several layers on top, with more circles on the tape. There is in an interior circle that has a ridge on it. Object A is just a smooth cylinder."
6895364160c1d27b582a0f71,6095,comparison_trial,10,340119,0,5be2dab1dc5b8d0001ce18a9,68953131762dbff38dcaae6a,689533b8b0e973258bfb6b26,0,1,"\n                        <div style=""text-align: center; padding: 20px; max-width: 1000px; margin: 0 auto;"">\n                            <h2 style=""font-size: 28px; margin-bottom: 40px; color: #333;"">\n                                Which object is more complex?\n                            </h2>\n                            \n                            <div style=""display: flex; justify-content: center; align-items: flex-start; gap: 60px; margin: 40px 0;"">\n                                <div style=""text-align: center;"">\n                                    <div style=""font-size: 20px; font-weight: bold; margin-bottom: 15px; color: #8C1515;"">Object A</div>\n                                    <video id=""video1"" src=""/general_assets/videos_familiarobjs/File 9.mp4"" \n                                           style=""width: 350px; height: 250px; object-fit: cover; border-radius: 8px; border: 2px solid #8C1515;""\n                                           muted loop>\n                                    </video>\n                                </div>\n                                \n                                <div style=""text-align: center;"">\n                                    <div style=""font-size: 20px; font-weight: bold; margin-bottom: 15px; color: #8C1515;"">Object B</div>\n                                    <video id=""video2"" src=""/general_assets/videos_familiarobjs/File 10.mp4"" \n                                           style=""width: 350px; height: 250px; object-fit: cover; border-radius: 8px; border: 2px solid #8C1515;""\n                                           muted loop>\n                                    </video>\n                                </div>\n                            </div>\n                            \n                            <p id=""instruction-text"" style=""margin-top: 30px; font-size: 18px; color: #666; max-width: 600px; margin-left: auto; margin-right: auto;"">\n                                Please wait for both videos to finish playing before making your choice.\n                            </p>\n                            \n                            <div id=""explanation-section"" style=""display: none; margin-top: 30px;"">\n                                <h3 style=""font-size: 22px; margin-bottom: 20px; color: #333;"">Please explain your choice:</h3>\n                                <textarea id=""explanation-text"" \n                                          placeholder=""Type your explanation here..."" \n                                          style=""width: 80%; max-width: 600px; height: 120px; padding: 15px; border: 2px solid #8C1515; border-radius: 8px; font-size: 16px; font-family: Arial, sans-serif; resize: vertical;""\n                                          required></textarea>\n                                <br><br>\n                                <button id=""submit-explanation"" class=""jspsych-btn"" style=""font-size: 18px; padding: 15px 30px; background-color: #8C1515; color: white; border: none; border-radius: 8px; cursor: pointer; min-width: 200px;"">\n                                    Continue\n                                </button>\n                            </div>\n                        </div>\n                    ",main_experiment,File 10.mp4,Object B,File 9.mp4,File 10.mp4,
