_id,rt,trial_type,trial_index,time_elapsed,internal_node_id,subject,study_id,session_id,__v,response,stimulus,explanation,leftVideo,rightVideo,block,chosen_video,chosen_object
6896941fc7d839a10c0a3d6f,5733,instructions,0,5735,0,5cdc899d48d5f100195fafff,68953131762dbff38dcaae6a,68969219fac6302c8fd913dd,0,,,,,,,,
6896941fc7d839a10c0a3d71,11364,instructions,1,17101,0,5cdc899d48d5f100195fafff,68953131762dbff38dcaae6a,68969219fac6302c8fd913dd,0,,,,,,,,
6896941fc7d839a10c0a3d77,15131,explanation_trial,5,118003,0,5cdc899d48d5f100195fafff,68953131762dbff38dcaae6a,68969219fac6302c8fd913dd,0,0,"\n                        <div style=""text-align: center; padding: 20px; max-width: 1000px; margin: 0 auto;"">\n                            <h2 style=""font-size: 28px; margin-bottom: 40px; color: #333;"">\n                                Explain Your Choice\n                            </h2>\n                            \n                            <div style=""display: flex; justify-content: center; align-items: flex-start; gap: 60px; margin: 40px 0;"">\n                                <div style=""text-align: center;"">\n                                    <div style=""font-size: 20px; font-weight: bold; margin-bottom: 15px; color: #28a745;"">Object A (Your Choice)</div>\n                                    <video id=""video1"" src=""/general_assets/videos_familiarobjs/4D.mp4"" \n                                           style=""width: 350px; height: 250px; object-fit: cover; border-radius: 8px; border: 4px solid #28a745;""\n                                           muted autoplay loop>\n                                    </video>\n                                </div>\n                                \n                                <div style=""text-align: center;"">\n                                    <div style=""font-size: 20px; font-weight: bold; margin-bottom: 15px; color: #8C1515;"">Object B</div>\n                                    <video id=""video2"" src=""/general_assets/videos_familiarobjs/2G.mp4"" \n                                           style=""width: 350px; height: 250px; object-fit: cover; border-radius: 8px; border: 2px solid #8C1515;""\n                                           muted autoplay loop>\n                                    </video>\n                                </div>\n                            </div>\n                            \n                            <div style=""margin-top: 40px; max-width: 800px; margin-left: auto; margin-right: auto;"">\n                                <h3 style=""font-size: 22px; margin-bottom: 20px; color: #333;"">\n                                    Please explain why you chose Object A as more complex:\n                                </h3>\n                                <textarea id=""explanation-text"" \n                                          placeholder=""Type your explanation here..."" \n                                          style=""width: 100%; height: 150px; padding: 20px; border: 2px solid #8C1515; border-radius: 8px; font-size: 16px; font-family: Arial, sans-serif; resize: vertical; box-sizing: border-box;""\n                                          required></textarea>\n                            </div>\n                        </div>\n                    ",has moving parts object b look like a mould,4D.mp4,2G.mp4,,,
6896941fc7d839a10c0a3d79,11546,comparison_trial,4,102868,0,5cdc899d48d5f100195fafff,68953131762dbff38dcaae6a,68969219fac6302c8fd913dd,0,0,"\n                        <div style=""text-align: center; padding: 20px; max-width: 1000px; margin: 0 auto;"">\n                            <h2 style=""font-size: 28px; margin-bottom: 40px; color: #333;"">\n                                Which object is more complex?\n                            </h2>\n                            \n                            <div style=""display: flex; justify-content: center; align-items: flex-start; gap: 60px; margin: 40px 0;"">\n                                <div style=""text-align: center;"">\n                                    <div style=""font-size: 20px; font-weight: bold; margin-bottom: 15px; color: #8C1515;"">Object A</div>\n                                    <video id=""video1"" src=""/general_assets/videos_familiarobjs/4D.mp4"" \n                                           style=""width: 350px; height: 250px; object-fit: cover; border-radius: 8px; border: 2px solid #8C1515;""\n                                           muted loop>\n                                    </video>\n                                </div>\n                                \n                                <div style=""text-align: center;"">\n                                    <div style=""font-size: 20px; font-weight: bold; margin-bottom: 15px; color: #8C1515;"">Object B</div>\n                                    <video id=""video2"" src=""/general_assets/videos_familiarobjs/2G.mp4"" \n                                           style=""width: 350px; height: 250px; object-fit: cover; border-radius: 8px; border: 2px solid #8C1515;""\n                                           muted loop>\n                                    </video>\n                                </div>\n                            </div>\n                            \n                            <p id=""instruction-text"" style=""margin-top: 30px; font-size: 18px; color: #666; max-width: 600px; margin-left: auto; margin-right: auto;"">\n                                Please wait for both videos to finish playing before making your choice.\n                            </p>\n                            \n                            <div id=""explanation-section"" style=""display: none; margin-top: 30px;"">\n                                <h3 style=""font-size: 22px; margin-bottom: 20px; color: #333;"">Please explain your choice:</h3>\n                                <textarea id=""explanation-text"" \n                                          placeholder=""Type your explanation here..."" \n                                          style=""width: 80%; max-width: 600px; height: 120px; padding: 15px; border: 2px solid #8C1515; border-radius: 8px; font-size: 16px; font-family: Arial, sans-serif; resize: vertical;""\n                                          required></textarea>\n                                <br><br>\n                                <button id=""submit-explanation"" class=""jspsych-btn"" style=""font-size: 18px; padding: 15px 30px; background-color: #8C1515; color: white; border: none; border-radius: 8px; cursor: pointer; min-width: 200px;"">\n                                    Continue\n                                </button>\n                            </div>\n                        </div>\n                    ",,4D.mp4,2G.mp4,main_experiment,4D.mp4,Object A
6896941fc7d839a10c0a3d73,55746,comparison_trial,2,72852,0,5cdc899d48d5f100195fafff,68953131762dbff38dcaae6a,68969219fac6302c8fd913dd,0,0,"\n                        <div style=""text-align: center; padding: 20px; max-width: 1000px; margin: 0 auto;"">\n                            <h2 style=""font-size: 28px; margin-bottom: 40px; color: #333;"">\n                                Which object is more complex?\n                            </h2>\n                            \n                            <div style=""display: flex; justify-content: center; align-items: flex-start; gap: 60px; margin: 40px 0;"">\n                                <div style=""text-align: center;"">\n                                    <div style=""font-size: 20px; font-weight: bold; margin-bottom: 15px; color: #8C1515;"">Object A</div>\n                                    <video id=""video1"" src=""/general_assets/videos_familiarobjs/File 36.mp4"" \n                                           style=""width: 350px; height: 250px; object-fit: cover; border-radius: 8px; border: 2px solid #8C1515;""\n                                           muted loop>\n                                    </video>\n                                </div>\n                                \n                                <div style=""text-align: center;"">\n                                    <div style=""font-size: 20px; font-weight: bold; margin-bottom: 15px; color: #8C1515;"">Object B</div>\n                                    <video id=""video2"" src=""/general_assets/videos_familiarobjs/File 23.mp4"" \n                                           style=""width: 350px; height: 250px; object-fit: cover; border-radius: 8px; border: 2px solid #8C1515;""\n                                           muted loop>\n                                    </video>\n                                </div>\n                            </div>\n                            \n                            <p id=""instruction-text"" style=""margin-top: 30px; font-size: 18px; color: #666; max-width: 600px; margin-left: auto; margin-right: auto;"">\n                                Please wait for both videos to finish playing before making your choice.\n                            </p>\n                            \n                            <div id=""explanation-section"" style=""display: none; margin-top: 30px;"">\n                                <h3 style=""font-size: 22px; margin-bottom: 20px; color: #333;"">Please explain your choice:</h3>\n                                <textarea id=""explanation-text"" \n                                          placeholder=""Type your explanation here..."" \n                                          style=""width: 80%; max-width: 600px; height: 120px; padding: 15px; border: 2px solid #8C1515; border-radius: 8px; font-size: 16px; font-family: Arial, sans-serif; resize: vertical;""\n                                          required></textarea>\n                                <br><br>\n                                <button id=""submit-explanation"" class=""jspsych-btn"" style=""font-size: 18px; padding: 15px 30px; background-color: #8C1515; color: white; border: none; border-radius: 8px; cursor: pointer; min-width: 200px;"">\n                                    Continue\n                                </button>\n                            </div>\n                        </div>\n                    ",,File 36.mp4,File 23.mp4,main_experiment,File 36.mp4,Object A
6896941fc7d839a10c0a3d75,18463,explanation_trial,3,91318,0,5cdc899d48d5f100195fafff,68953131762dbff38dcaae6a,68969219fac6302c8fd913dd,0,0,"\n                        <div style=""text-align: center; padding: 20px; max-width: 1000px; margin: 0 auto;"">\n                            <h2 style=""font-size: 28px; margin-bottom: 40px; color: #333;"">\n                                Explain Your Choice\n                            </h2>\n                            \n                            <div style=""display: flex; justify-content: center; align-items: flex-start; gap: 60px; margin: 40px 0;"">\n                                <div style=""text-align: center;"">\n                                    <div style=""font-size: 20px; font-weight: bold; margin-bottom: 15px; color: #28a745;"">Object A (Your Choice)</div>\n                                    <video id=""video1"" src=""/general_assets/videos_familiarobjs/File 36.mp4"" \n                                           style=""width: 350px; height: 250px; object-fit: cover; border-radius: 8px; border: 4px solid #28a745;""\n                                           muted autoplay loop>\n                                    </video>\n                                </div>\n                                \n                                <div style=""text-align: center;"">\n                                    <div style=""font-size: 20px; font-weight: bold; margin-bottom: 15px; color: #8C1515;"">Object B</div>\n                                    <video id=""video2"" src=""/general_assets/videos_familiarobjs/File 23.mp4"" \n                                           style=""width: 350px; height: 250px; object-fit: cover; border-radius: 8px; border: 2px solid #8C1515;""\n                                           muted autoplay loop>\n                                    </video>\n                                </div>\n                            </div>\n                            \n                            <div style=""margin-top: 40px; max-width: 800px; margin-left: auto; margin-right: auto;"">\n                                <h3 style=""font-size: 22px; margin-bottom: 20px; color: #333;"">\n                                    Please explain why you chose Object A as more complex:\n                                </h3>\n                                <textarea id=""explanation-text"" \n                                          placeholder=""Type your explanation here..."" \n                                          style=""width: 100%; height: 150px; padding: 20px; border: 2px solid #8C1515; border-radius: 8px; font-size: 16px; font-family: Arial, sans-serif; resize: vertical; box-sizing: border-box;""\n                                          required></textarea>\n                            </div>\n                        </div>\n                    ",harder to use than just a squirt bottle,File 36.mp4,File 23.mp4,,,
68969420c7d839a10c0a3d7b,20445,comparison_trial,6,138452,0,5cdc899d48d5f100195fafff,68953131762dbff38dcaae6a,68969219fac6302c8fd913dd,0,1,"\n                        <div style=""text-align: center; padding: 20px; max-width: 1000px; margin: 0 auto;"">\n                            <h2 style=""font-size: 28px; margin-bottom: 40px; color: #333;"">\n                                Which object is more complex?\n                            </h2>\n                            \n                            <div style=""display: flex; justify-content: center; align-items: flex-start; gap: 60px; margin: 40px 0;"">\n                                <div style=""text-align: center;"">\n                                    <div style=""font-size: 20px; font-weight: bold; margin-bottom: 15px; color: #8C1515;"">Object A</div>\n                                    <video id=""video1"" src=""/general_assets/videos_familiarobjs/File 56.mov"" \n                                           style=""width: 350px; height: 250px; object-fit: cover; border-radius: 8px; border: 2px solid #8C1515;""\n                                           muted loop>\n                                    </video>\n                                </div>\n                                \n                                <div style=""text-align: center;"">\n                                    <div style=""font-size: 20px; font-weight: bold; margin-bottom: 15px; color: #8C1515;"">Object B</div>\n                                    <video id=""video2"" src=""/general_assets/videos_familiarobjs/4E.mp4"" \n                                           style=""width: 350px; height: 250px; object-fit: cover; border-radius: 8px; border: 2px solid #8C1515;""\n                                           muted loop>\n                                    </video>\n                                </div>\n                            </div>\n                            \n                            <p id=""instruction-text"" style=""margin-top: 30px; font-size: 18px; color: #666; max-width: 600px; margin-left: auto; margin-right: auto;"">\n                                Please wait for both videos to finish playing before making your choice.\n                            </p>\n                            \n                            <div id=""explanation-section"" style=""display: none; margin-top: 30px;"">\n                                <h3 style=""font-size: 22px; margin-bottom: 20px; color: #333;"">Please explain your choice:</h3>\n                                <textarea id=""explanation-text"" \n                                          placeholder=""Type your explanation here..."" \n                                          style=""width: 80%; max-width: 600px; height: 120px; padding: 15px; border: 2px solid #8C1515; border-radius: 8px; font-size: 16px; font-family: Arial, sans-serif; resize: vertical;""\n                                          required></textarea>\n                                <br><br>\n                                <button id=""submit-explanation"" class=""jspsych-btn"" style=""font-size: 18px; padding: 15px 30px; background-color: #8C1515; color: white; border: none; border-radius: 8px; cursor: pointer; min-width: 200px;"">\n                                    Continue\n                                </button>\n                            </div>\n                        </div>\n                    ",,File 56.mov,4E.mp4,main_experiment,4E.mp4,Object B
68969420c7d839a10c0a3d7d,11864,explanation_trial,7,150319,0,5cdc899d48d5f100195fafff,68953131762dbff38dcaae6a,68969219fac6302c8fd913dd,0,0,"\n                        <div style=""text-align: center; padding: 20px; max-width: 1000px; margin: 0 auto;"">\n                            <h2 style=""font-size: 28px; margin-bottom: 40px; color: #333;"">\n                                Explain Your Choice\n                            </h2>\n                            \n                            <div style=""display: flex; justify-content: center; align-items: flex-start; gap: 60px; margin: 40px 0;"">\n                                <div style=""text-align: center;"">\n                                    <div style=""font-size: 20px; font-weight: bold; margin-bottom: 15px; color: #8C1515;"">Object A</div>\n                                    <video id=""video1"" src=""/general_assets/videos_familiarobjs/File 56.mov"" \n                                           style=""width: 350px; height: 250px; object-fit: cover; border-radius: 8px; border: 2px solid #8C1515;""\n                                           muted autoplay loop>\n                                    </video>\n                                </div>\n                                \n                                <div style=""text-align: center;"">\n                                    <div style=""font-size: 20px; font-weight: bold; margin-bottom: 15px; color: #28a745;"">Object B (Your Choice)</div>\n                                    <video id=""video2"" src=""/general_assets/videos_familiarobjs/4E.mp4"" \n                                           style=""width: 350px; height: 250px; object-fit: cover; border-radius: 8px; border: 4px solid #28a745;""\n                                           muted autoplay loop>\n                                    </video>\n                                </div>\n                            </div>\n                            \n                            <div style=""margin-top: 40px; max-width: 800px; margin-left: auto; margin-right: auto;"">\n                                <h3 style=""font-size: 22px; margin-bottom: 20px; color: #333;"">\n                                    Please explain why you chose Object B as more complex:\n                                </h3>\n                                <textarea id=""explanation-text"" \n                                          placeholder=""Type your explanation here..."" \n                                          style=""width: 100%; height: 150px; padding: 20px; border: 2px solid #8C1515; border-radius: 8px; font-size: 16px; font-family: Arial, sans-serif; resize: vertical; box-sizing: border-box;""\n                                          required></textarea>\n                            </div>\n                        </div>\n                    ",b as it looks like its hand made,File 56.mov,4E.mp4,,,
68969420c7d839a10c0a3d7f,20897,comparison_trial,8,171219,0,5cdc899d48d5f100195fafff,68953131762dbff38dcaae6a,68969219fac6302c8fd913dd,0,1,"\n                        <div style=""text-align: center; padding: 20px; max-width: 1000px; margin: 0 auto;"">\n                            <h2 style=""font-size: 28px; margin-bottom: 40px; color: #333;"">\n                                Which object is more complex?\n                            </h2>\n                            \n                            <div style=""display: flex; justify-content: center; align-items: flex-start; gap: 60px; margin: 40px 0;"">\n                                <div style=""text-align: center;"">\n                                    <div style=""font-size: 20px; font-weight: bold; margin-bottom: 15px; color: #8C1515;"">Object A</div>\n                                    <video id=""video1"" src=""/general_assets/videos_familiarobjs/File 4.mp4"" \n                                           style=""width: 350px; height: 250px; object-fit: cover; border-radius: 8px; border: 2px solid #8C1515;""\n                                           muted loop>\n                                    </video>\n                                </div>\n                                \n                                <div style=""text-align: center;"">\n                                    <div style=""font-size: 20px; font-weight: bold; margin-bottom: 15px; color: #8C1515;"">Object B</div>\n                                    <video id=""video2"" src=""/general_assets/videos_familiarobjs/File 50.mov"" \n                                           style=""width: 350px; height: 250px; object-fit: cover; border-radius: 8px; border: 2px solid #8C1515;""\n                                           muted loop>\n                                    </video>\n                                </div>\n                            </div>\n                            \n                            <p id=""instruction-text"" style=""margin-top: 30px; font-size: 18px; color: #666; max-width: 600px; margin-left: auto; margin-right: auto;"">\n                                Please wait for both videos to finish playing before making your choice.\n                            </p>\n                            \n                            <div id=""explanation-section"" style=""display: none; margin-top: 30px;"">\n                                <h3 style=""font-size: 22px; margin-bottom: 20px; color: #333;"">Please explain your choice:</h3>\n                                <textarea id=""explanation-text"" \n                                          placeholder=""Type your explanation here..."" \n                                          style=""width: 80%; max-width: 600px; height: 120px; padding: 15px; border: 2px solid #8C1515; border-radius: 8px; font-size: 16px; font-family: Arial, sans-serif; resize: vertical;""\n                                          required></textarea>\n                                <br><br>\n                                <button id=""submit-explanation"" class=""jspsych-btn"" style=""font-size: 18px; padding: 15px 30px; background-color: #8C1515; color: white; border: none; border-radius: 8px; cursor: pointer; min-width: 200px;"">\n                                    Continue\n                                </button>\n                            </div>\n                        </div>\n                    ",,File 4.mp4,File 50.mov,main_experiment,File 50.mov,Object B
68969420c7d839a10c0a3d81,18030,explanation_trial,9,189252,0,5cdc899d48d5f100195fafff,68953131762dbff38dcaae6a,68969219fac6302c8fd913dd,0,0,"\n                        <div style=""text-align: center; padding: 20px; max-width: 1000px; margin: 0 auto;"">\n                            <h2 style=""font-size: 28px; margin-bottom: 40px; color: #333;"">\n                                Explain Your Choice\n                            </h2>\n                            \n                            <div style=""display: flex; justify-content: center; align-items: flex-start; gap: 60px; margin: 40px 0;"">\n                                <div style=""text-align: center;"">\n                                    <div style=""font-size: 20px; font-weight: bold; margin-bottom: 15px; color: #8C1515;"">Object A</div>\n                                    <video id=""video1"" src=""/general_assets/videos_familiarobjs/File 4.mp4"" \n                                           style=""width: 350px; height: 250px; object-fit: cover; border-radius: 8px; border: 2px solid #8C1515;""\n                                           muted autoplay loop>\n                                    </video>\n                                </div>\n                                \n                                <div style=""text-align: center;"">\n                                    <div style=""font-size: 20px; font-weight: bold; margin-bottom: 15px; color: #28a745;"">Object B (Your Choice)</div>\n                                    <video id=""video2"" src=""/general_assets/videos_familiarobjs/File 50.mov"" \n                                           style=""width: 350px; height: 250px; object-fit: cover; border-radius: 8px; border: 4px solid #28a745;""\n                                           muted autoplay loop>\n                                    </video>\n                                </div>\n                            </div>\n                            \n                            <div style=""margin-top: 40px; max-width: 800px; margin-left: auto; margin-right: auto;"">\n                                <h3 style=""font-size: 22px; margin-bottom: 20px; color: #333;"">\n                                    Please explain why you chose Object B as more complex:\n                                </h3>\n                                <textarea id=""explanation-text"" \n                                          placeholder=""Type your explanation here..."" \n                                          style=""width: 100%; height: 150px; padding: 20px; border: 2px solid #8C1515; border-radius: 8px; font-size: 16px; font-family: Arial, sans-serif; resize: vertical; box-sizing: border-box;""\n                                          required></textarea>\n                            </div>\n                        </div>\n                    ",,File 4.mp4,File 50.mov,,,
68969420c7d839a10c0a3d83,21230,comparison_trial,10,210485,0,5cdc899d48d5f100195fafff,68953131762dbff38dcaae6a,68969219fac6302c8fd913dd,0,1,"\n                        <div style=""text-align: center; padding: 20px; max-width: 1000px; margin: 0 auto;"">\n                            <h2 style=""font-size: 28px; margin-bottom: 40px; color: #333;"">\n                                Which object is more complex?\n                            </h2>\n                            \n                            <div style=""display: flex; justify-content: center; align-items: flex-start; gap: 60px; margin: 40px 0;"">\n                                <div style=""text-align: center;"">\n                                    <div style=""font-size: 20px; font-weight: bold; margin-bottom: 15px; color: #8C1515;"">Object A</div>\n                                    <video id=""video1"" src=""/general_assets/videos_familiarobjs/1B.mp4"" \n                                           style=""width: 350px; height: 250px; object-fit: cover; border-radius: 8px; border: 2px solid #8C1515;""\n                                           muted loop>\n                                    </video>\n                                </div>\n                                \n                                <div style=""text-align: center;"">\n                                    <div style=""font-size: 20px; font-weight: bold; margin-bottom: 15px; color: #8C1515;"">Object B</div>\n                                    <video id=""video2"" src=""/general_assets/videos_familiarobjs/4A.mp4"" \n                                           style=""width: 350px; height: 250px; object-fit: cover; border-radius: 8px; border: 2px solid #8C1515;""\n                                           muted loop>\n                                    </video>\n                                </div>\n                            </div>\n                            \n                            <p id=""instruction-text"" style=""margin-top: 30px; font-size: 18px; color: #666; max-width: 600px; margin-left: auto; margin-right: auto;"">\n                                Please wait for both videos to finish playing before making your choice.\n                            </p>\n                            \n                            <div id=""explanation-section"" style=""display: none; margin-top: 30px;"">\n                                <h3 style=""font-size: 22px; margin-bottom: 20px; color: #333;"">Please explain your choice:</h3>\n                                <textarea id=""explanation-text"" \n                                          placeholder=""Type your explanation here..."" \n                                          style=""width: 80%; max-width: 600px; height: 120px; padding: 15px; border: 2px solid #8C1515; border-radius: 8px; font-size: 16px; font-family: Arial, sans-serif; resize: vertical;""\n                                          required></textarea>\n                                <br><br>\n                                <button id=""submit-explanation"" class=""jspsych-btn"" style=""font-size: 18px; padding: 15px 30px; background-color: #8C1515; color: white; border: none; border-radius: 8px; cursor: pointer; min-width: 200px;"">\n                                    Continue\n                                </button>\n                            </div>\n                        </div>\n                    ",,1B.mp4,4A.mp4,main_experiment,4A.mp4,Object B
68969420c7d839a10c0a3d85,11298,explanation_trial,11,221786,0,5cdc899d48d5f100195fafff,68953131762dbff38dcaae6a,68969219fac6302c8fd913dd,0,0,"\n                        <div style=""text-align: center; padding: 20px; max-width: 1000px; margin: 0 auto;"">\n                            <h2 style=""font-size: 28px; margin-bottom: 40px; color: #333;"">\n                                Explain Your Choice\n                            </h2>\n                            \n                            <div style=""display: flex; justify-content: center; align-items: flex-start; gap: 60px; margin: 40px 0;"">\n                                <div style=""text-align: center;"">\n                                    <div style=""font-size: 20px; font-weight: bold; margin-bottom: 15px; color: #8C1515;"">Object A</div>\n                                    <video id=""video1"" src=""/general_assets/videos_familiarobjs/1B.mp4"" \n                                           style=""width: 350px; height: 250px; object-fit: cover; border-radius: 8px; border: 2px solid #8C1515;""\n                                           muted autoplay loop>\n                                    </video>\n                                </div>\n                                \n                                <div style=""text-align: center;"">\n                                    <div style=""font-size: 20px; font-weight: bold; margin-bottom: 15px; color: #28a745;"">Object B (Your Choice)</div>\n                                    <video id=""video2"" src=""/general_assets/videos_familiarobjs/4A.mp4"" \n                                           style=""width: 350px; height: 250px; object-fit: cover; border-radius: 8px; border: 4px solid #28a745;""\n                                           muted autoplay loop>\n                                    </video>\n                                </div>\n                            </div>\n                            \n                            <div style=""margin-top: 40px; max-width: 800px; margin-left: auto; margin-right: auto;"">\n                                <h3 style=""font-size: 22px; margin-bottom: 20px; color: #333;"">\n                                    Please explain why you chose Object B as more complex:\n                                </h3>\n                                <textarea id=""explanation-text"" \n                                          placeholder=""Type your explanation here..."" \n                                          style=""width: 100%; height: 150px; padding: 20px; border: 2px solid #8C1515; border-radius: 8px; font-size: 16px; font-family: Arial, sans-serif; resize: vertical; box-sizing: border-box;""\n                                          required></textarea>\n                            </div>\n                        </div>\n                    ",looks hand made not idea what a is,1B.mp4,4A.mp4,,,
68969420c7d839a10c0a3d87,49596,comparison_trial,12,271386,0,5cdc899d48d5f100195fafff,68953131762dbff38dcaae6a,68969219fac6302c8fd913dd,0,0,"\n                        <div style=""text-align: center; padding: 20px; max-width: 1000px; margin: 0 auto;"">\n                            <h2 style=""font-size: 28px; margin-bottom: 40px; color: #333;"">\n                                Which object is more complex?\n                            </h2>\n                            \n                            <div style=""display: flex; justify-content: center; align-items: flex-start; gap: 60px; margin: 40px 0;"">\n                                <div style=""text-align: center;"">\n                                    <div style=""font-size: 20px; font-weight: bold; margin-bottom: 15px; color: #8C1515;"">Object A</div>\n                                    <video id=""video1"" src=""/general_assets/videos_familiarobjs/File 55.mov"" \n                                           style=""width: 350px; height: 250px; object-fit: cover; border-radius: 8px; border: 2px solid #8C1515;""\n                                           muted loop>\n                                    </video>\n                                </div>\n                                \n                                <div style=""text-align: center;"">\n                                    <div style=""font-size: 20px; font-weight: bold; margin-bottom: 15px; color: #8C1515;"">Object B</div>\n                                    <video id=""video2"" src=""/general_assets/videos_familiarobjs/File 14.mp4"" \n                                           style=""width: 350px; height: 250px; object-fit: cover; border-radius: 8px; border: 2px solid #8C1515;""\n                                           muted loop>\n                                    </video>\n                                </div>\n                            </div>\n                            \n                            <p id=""instruction-text"" style=""margin-top: 30px; font-size: 18px; color: #666; max-width: 600px; margin-left: auto; margin-right: auto;"">\n                                Please wait for both videos to finish playing before making your choice.\n                            </p>\n                            \n                            <div id=""explanation-section"" style=""display: none; margin-top: 30px;"">\n                                <h3 style=""font-size: 22px; margin-bottom: 20px; color: #333;"">Please explain your choice:</h3>\n                                <textarea id=""explanation-text"" \n                                          placeholder=""Type your explanation here..."" \n                                          style=""width: 80%; max-width: 600px; height: 120px; padding: 15px; border: 2px solid #8C1515; border-radius: 8px; font-size: 16px; font-family: Arial, sans-serif; resize: vertical;""\n                                          required></textarea>\n                                <br><br>\n                                <button id=""submit-explanation"" class=""jspsych-btn"" style=""font-size: 18px; padding: 15px 30px; background-color: #8C1515; color: white; border: none; border-radius: 8px; cursor: pointer; min-width: 200px;"">\n                                    Continue\n                                </button>\n                            </div>\n                        </div>\n                    ",,File 55.mov,File 14.mp4,main_experiment,File 55.mov,Object A
68969420c7d839a10c0a3d89,24413,explanation_trial,13,295802,0,5cdc899d48d5f100195fafff,68953131762dbff38dcaae6a,68969219fac6302c8fd913dd,0,0,"\n                        <div style=""text-align: center; padding: 20px; max-width: 1000px; margin: 0 auto;"">\n                            <h2 style=""font-size: 28px; margin-bottom: 40px; color: #333;"">\n                                Explain Your Choice\n                            </h2>\n                            \n                            <div style=""display: flex; justify-content: center; align-items: flex-start; gap: 60px; margin: 40px 0;"">\n                                <div style=""text-align: center;"">\n                                    <div style=""font-size: 20px; font-weight: bold; margin-bottom: 15px; color: #28a745;"">Object A (Your Choice)</div>\n                                    <video id=""video1"" src=""/general_assets/videos_familiarobjs/File 55.mov"" \n                                           style=""width: 350px; height: 250px; object-fit: cover; border-radius: 8px; border: 4px solid #28a745;""\n                                           muted autoplay loop>\n                                    </video>\n                                </div>\n                                \n                                <div style=""text-align: center;"">\n                                    <div style=""font-size: 20px; font-weight: bold; margin-bottom: 15px; color: #8C1515;"">Object B</div>\n                                    <video id=""video2"" src=""/general_assets/videos_familiarobjs/File 14.mp4"" \n                                           style=""width: 350px; height: 250px; object-fit: cover; border-radius: 8px; border: 2px solid #8C1515;""\n                                           muted autoplay loop>\n                                    </video>\n                                </div>\n                            </div>\n                            \n                            <div style=""margin-top: 40px; max-width: 800px; margin-left: auto; margin-right: auto;"">\n                                <h3 style=""font-size: 22px; margin-bottom: 20px; color: #333;"">\n                                    Please explain why you chose Object A as more complex:\n                                </h3>\n                                <textarea id=""explanation-text"" \n                                          placeholder=""Type your explanation here..."" \n                                          style=""width: 100%; height: 150px; padding: 20px; border: 2px solid #8C1515; border-radius: 8px; font-size: 16px; font-family: Arial, sans-serif; resize: vertical; box-sizing: border-box;""\n                                          required></textarea>\n                            </div>\n                        </div>\n                    ",is more too it in moving parts and can retract hold tape in place,File 55.mov,File 14.mp4,,,
68969420c7d839a10c0a3d8b,35580,comparison_trial,14,331385,0,5cdc899d48d5f100195fafff,68953131762dbff38dcaae6a,68969219fac6302c8fd913dd,0,0,"\n                        <div style=""text-align: center; padding: 20px; max-width: 1000px; margin: 0 auto;"">\n                            <h2 style=""font-size: 28px; margin-bottom: 40px; color: #333;"">\n                                Which object is more complex?\n                            </h2>\n                            \n                            <div style=""display: flex; justify-content: center; align-items: flex-start; gap: 60px; margin: 40px 0;"">\n                                <div style=""text-align: center;"">\n                                    <div style=""font-size: 20px; font-weight: bold; margin-bottom: 15px; color: #8C1515;"">Object A</div>\n                                    <video id=""video1"" src=""/general_assets/videos_familiarobjs/File 51.mov"" \n                                           style=""width: 350px; height: 250px; object-fit: cover; border-radius: 8px; border: 2px solid #8C1515;""\n                                           muted loop>\n                                    </video>\n                                </div>\n                                \n                                <div style=""text-align: center;"">\n                                    <div style=""font-size: 20px; font-weight: bold; margin-bottom: 15px; color: #8C1515;"">Object B</div>\n                                    <video id=""video2"" src=""/general_assets/videos_familiarobjs/2B.mp4"" \n                                           style=""width: 350px; height: 250px; object-fit: cover; border-radius: 8px; border: 2px solid #8C1515;""\n                                           muted loop>\n                                    </video>\n                                </div>\n                            </div>\n                            \n                            <p id=""instruction-text"" style=""margin-top: 30px; font-size: 18px; color: #666; max-width: 600px; margin-left: auto; margin-right: auto;"">\n                                Please wait for both videos to finish playing before making your choice.\n                            </p>\n                            \n                            <div id=""explanation-section"" style=""display: none; margin-top: 30px;"">\n                                <h3 style=""font-size: 22px; margin-bottom: 20px; color: #333;"">Please explain your choice:</h3>\n                                <textarea id=""explanation-text"" \n                                          placeholder=""Type your explanation here..."" \n                                          style=""width: 80%; max-width: 600px; height: 120px; padding: 15px; border: 2px solid #8C1515; border-radius: 8px; font-size: 16px; font-family: Arial, sans-serif; resize: vertical;""\n                                          required></textarea>\n                                <br><br>\n                                <button id=""submit-explanation"" class=""jspsych-btn"" style=""font-size: 18px; padding: 15px 30px; background-color: #8C1515; color: white; border: none; border-radius: 8px; cursor: pointer; min-width: 200px;"">\n                                    Continue\n                                </button>\n                            </div>\n                        </div>\n                    ",,File 51.mov,2B.mp4,main_experiment,File 51.mov,Object A
68969420c7d839a10c0a3d8d,25364,explanation_trial,15,356747,0,5cdc899d48d5f100195fafff,68953131762dbff38dcaae6a,68969219fac6302c8fd913dd,0,0,"\n                        <div style=""text-align: center; padding: 20px; max-width: 1000px; margin: 0 auto;"">\n                            <h2 style=""font-size: 28px; margin-bottom: 40px; color: #333;"">\n                                Explain Your Choice\n                            </h2>\n                            \n                            <div style=""display: flex; justify-content: center; align-items: flex-start; gap: 60px; margin: 40px 0;"">\n                                <div style=""text-align: center;"">\n                                    <div style=""font-size: 20px; font-weight: bold; margin-bottom: 15px; color: #28a745;"">Object A (Your Choice)</div>\n                                    <video id=""video1"" src=""/general_assets/videos_familiarobjs/File 51.mov"" \n                                           style=""width: 350px; height: 250px; object-fit: cover; border-radius: 8px; border: 4px solid #28a745;""\n                                           muted autoplay loop>\n                                    </video>\n                                </div>\n                                \n                                <div style=""text-align: center;"">\n                                    <div style=""font-size: 20px; font-weight: bold; margin-bottom: 15px; color: #8C1515;"">Object B</div>\n                                    <video id=""video2"" src=""/general_assets/videos_familiarobjs/2B.mp4"" \n                                           style=""width: 350px; height: 250px; object-fit: cover; border-radius: 8px; border: 2px solid #8C1515;""\n                                           muted autoplay loop>\n                                    </video>\n                                </div>\n                            </div>\n                            \n                            <div style=""margin-top: 40px; max-width: 800px; margin-left: auto; margin-right: auto;"">\n                                <h3 style=""font-size: 22px; margin-bottom: 20px; color: #333;"">\n                                    Please explain why you chose Object A as more complex:\n                                </h3>\n                                <textarea id=""explanation-text"" \n                                          placeholder=""Type your explanation here..."" \n                                          style=""width: 100%; height: 150px; padding: 20px; border: 2px solid #8C1515; border-radius: 8px; font-size: 16px; font-family: Arial, sans-serif; resize: vertical; box-sizing: border-box;""\n                                          required></textarea>\n                            </div>\n                        </div>\n                    ",would say A  but dont know what either are AND ITS BIGGER,File 51.mov,2B.mp4,,,
68969420c7d839a10c0a3d8f,21596,comparison_trial,16,378338,0,5cdc899d48d5f100195fafff,68953131762dbff38dcaae6a,68969219fac6302c8fd913dd,0,0,"\n                        <div style=""text-align: center; padding: 20px; max-width: 1000px; margin: 0 auto;"">\n                            <h2 style=""font-size: 28px; margin-bottom: 40px; color: #333;"">\n                                Which object is more complex?\n                            </h2>\n                            \n                            <div style=""display: flex; justify-content: center; align-items: flex-start; gap: 60px; margin: 40px 0;"">\n                                <div style=""text-align: center;"">\n                                    <div style=""font-size: 20px; font-weight: bold; margin-bottom: 15px; color: #8C1515;"">Object A</div>\n                                    <video id=""video1"" src=""/general_assets/videos_familiarobjs/File 20.mp4"" \n                                           style=""width: 350px; height: 250px; object-fit: cover; border-radius: 8px; border: 2px solid #8C1515;""\n                                           muted loop>\n                                    </video>\n                                </div>\n                                \n                                <div style=""text-align: center;"">\n                                    <div style=""font-size: 20px; font-weight: bold; margin-bottom: 15px; color: #8C1515;"">Object B</div>\n                                    <video id=""video2"" src=""/general_assets/videos_familiarobjs/1E.mp4"" \n                                           style=""width: 350px; height: 250px; object-fit: cover; border-radius: 8px; border: 2px solid #8C1515;""\n                                           muted loop>\n                                    </video>\n                                </div>\n                            </div>\n                            \n                            <p id=""instruction-text"" style=""margin-top: 30px; font-size: 18px; color: #666; max-width: 600px; margin-left: auto; margin-right: auto;"">\n                                Please wait for both videos to finish playing before making your choice.\n                            </p>\n                            \n                            <div id=""explanation-section"" style=""display: none; margin-top: 30px;"">\n                                <h3 style=""font-size: 22px; margin-bottom: 20px; color: #333;"">Please explain your choice:</h3>\n                                <textarea id=""explanation-text"" \n                                          placeholder=""Type your explanation here..."" \n                                          style=""width: 80%; max-width: 600px; height: 120px; padding: 15px; border: 2px solid #8C1515; border-radius: 8px; font-size: 16px; font-family: Arial, sans-serif; resize: vertical;""\n                                          required></textarea>\n                                <br><br>\n                                <button id=""submit-explanation"" class=""jspsych-btn"" style=""font-size: 18px; padding: 15px 30px; background-color: #8C1515; color: white; border: none; border-radius: 8px; cursor: pointer; min-width: 200px;"">\n                                    Continue\n                                </button>\n                            </div>\n                        </div>\n                    ",,File 20.mp4,1E.mp4,main_experiment,File 20.mp4,Object A
68969420c7d839a10c0a3d91,16030,explanation_trial,17,394369,0,5cdc899d48d5f100195fafff,68953131762dbff38dcaae6a,68969219fac6302c8fd913dd,0,0,"\n                        <div style=""text-align: center; padding: 20px; max-width: 1000px; margin: 0 auto;"">\n                            <h2 style=""font-size: 28px; margin-bottom: 40px; color: #333;"">\n                                Explain Your Choice\n                            </h2>\n                            \n                            <div style=""display: flex; justify-content: center; align-items: flex-start; gap: 60px; margin: 40px 0;"">\n                                <div style=""text-align: center;"">\n                                    <div style=""font-size: 20px; font-weight: bold; margin-bottom: 15px; color: #28a745;"">Object A (Your Choice)</div>\n                                    <video id=""video1"" src=""/general_assets/videos_familiarobjs/File 20.mp4"" \n                                           style=""width: 350px; height: 250px; object-fit: cover; border-radius: 8px; border: 4px solid #28a745;""\n                                           muted autoplay loop>\n                                    </video>\n                                </div>\n                                \n                                <div style=""text-align: center;"">\n                                    <div style=""font-size: 20px; font-weight: bold; margin-bottom: 15px; color: #8C1515;"">Object B</div>\n                                    <video id=""video2"" src=""/general_assets/videos_familiarobjs/1E.mp4"" \n                                           style=""width: 350px; height: 250px; object-fit: cover; border-radius: 8px; border: 2px solid #8C1515;""\n                                           muted autoplay loop>\n                                    </video>\n                                </div>\n                            </div>\n                            \n                            <div style=""margin-top: 40px; max-width: 800px; margin-left: auto; margin-right: auto;"">\n                                <h3 style=""font-size: 22px; margin-bottom: 20px; color: #333;"">\n                                    Please explain why you chose Object A as more complex:\n                                </h3>\n                                <textarea id=""explanation-text"" \n                                          placeholder=""Type your explanation here..."" \n                                          style=""width: 100%; height: 150px; padding: 20px; border: 2px solid #8C1515; border-radius: 8px; font-size: 16px; font-family: Arial, sans-serif; resize: vertical; box-sizing: border-box;""\n                                          required></textarea>\n                            </div>\n                        </div>\n                    ",more usable moving parts harder to make,File 20.mp4,1E.mp4,,,
68969420c7d839a10c0a3d93,38563,comparison_trial,18,432934,0,5cdc899d48d5f100195fafff,68953131762dbff38dcaae6a,68969219fac6302c8fd913dd,0,0,"\n                        <div style=""text-align: center; padding: 20px; max-width: 1000px; margin: 0 auto;"">\n                            <h2 style=""font-size: 28px; margin-bottom: 40px; color: #333;"">\n                                Which object is more complex?\n                            </h2>\n                            \n                            <div style=""display: flex; justify-content: center; align-items: flex-start; gap: 60px; margin: 40px 0;"">\n                                <div style=""text-align: center;"">\n                                    <div style=""font-size: 20px; font-weight: bold; margin-bottom: 15px; color: #8C1515;"">Object A</div>\n                                    <video id=""video1"" src=""/general_assets/videos_familiarobjs/File 42.mov"" \n                                           style=""width: 350px; height: 250px; object-fit: cover; border-radius: 8px; border: 2px solid #8C1515;""\n                                           muted loop>\n                                    </video>\n                                </div>\n                                \n                                <div style=""text-align: center;"">\n                                    <div style=""font-size: 20px; font-weight: bold; margin-bottom: 15px; color: #8C1515;"">Object B</div>\n                                    <video id=""video2"" src=""/general_assets/videos_familiarobjs/File 40.mov"" \n                                           style=""width: 350px; height: 250px; object-fit: cover; border-radius: 8px; border: 2px solid #8C1515;""\n                                           muted loop>\n                                    </video>\n                                </div>\n                            </div>\n                            \n                            <p id=""instruction-text"" style=""margin-top: 30px; font-size: 18px; color: #666; max-width: 600px; margin-left: auto; margin-right: auto;"">\n                                Please wait for both videos to finish playing before making your choice.\n                            </p>\n                            \n                            <div id=""explanation-section"" style=""display: none; margin-top: 30px;"">\n                                <h3 style=""font-size: 22px; margin-bottom: 20px; color: #333;"">Please explain your choice:</h3>\n                                <textarea id=""explanation-text"" \n                                          placeholder=""Type your explanation here..."" \n                                          style=""width: 80%; max-width: 600px; height: 120px; padding: 15px; border: 2px solid #8C1515; border-radius: 8px; font-size: 16px; font-family: Arial, sans-serif; resize: vertical;""\n                                          required></textarea>\n                                <br><br>\n                                <button id=""submit-explanation"" class=""jspsych-btn"" style=""font-size: 18px; padding: 15px 30px; background-color: #8C1515; color: white; border: none; border-radius: 8px; cursor: pointer; min-width: 200px;"">\n                                    Continue\n                                </button>\n                            </div>\n                        </div>\n                    ",,File 42.mov,File 40.mov,main_experiment,File 42.mov,Object A
68969420c7d839a10c0a3d95,18348,explanation_trial,19,451285,0,5cdc899d48d5f100195fafff,68953131762dbff38dcaae6a,68969219fac6302c8fd913dd,0,0,"\n                        <div style=""text-align: center; padding: 20px; max-width: 1000px; margin: 0 auto;"">\n                            <h2 style=""font-size: 28px; margin-bottom: 40px; color: #333;"">\n                                Explain Your Choice\n                            </h2>\n                            \n                            <div style=""display: flex; justify-content: center; align-items: flex-start; gap: 60px; margin: 40px 0;"">\n                                <div style=""text-align: center;"">\n                                    <div style=""font-size: 20px; font-weight: bold; margin-bottom: 15px; color: #28a745;"">Object A (Your Choice)</div>\n                                    <video id=""video1"" src=""/general_assets/videos_familiarobjs/File 42.mov"" \n                                           style=""width: 350px; height: 250px; object-fit: cover; border-radius: 8px; border: 4px solid #28a745;""\n                                           muted autoplay loop>\n                                    </video>\n                                </div>\n                                \n                                <div style=""text-align: center;"">\n                                    <div style=""font-size: 20px; font-weight: bold; margin-bottom: 15px; color: #8C1515;"">Object B</div>\n                                    <video id=""video2"" src=""/general_assets/videos_familiarobjs/File 40.mov"" \n                                           style=""width: 350px; height: 250px; object-fit: cover; border-radius: 8px; border: 2px solid #8C1515;""\n                                           muted autoplay loop>\n                                    </video>\n                                </div>\n                            </div>\n                            \n                            <div style=""margin-top: 40px; max-width: 800px; margin-left: auto; margin-right: auto;"">\n                                <h3 style=""font-size: 22px; margin-bottom: 20px; color: #333;"">\n                                    Please explain why you chose Object A as more complex:\n                                </h3>\n                                <textarea id=""explanation-text"" \n                                          placeholder=""Type your explanation here..."" \n                                          style=""width: 100%; height: 150px; padding: 20px; border: 2px solid #8C1515; border-radius: 8px; font-size: 16px; font-family: Arial, sans-serif; resize: vertical; box-sizing: border-box;""\n                                          required></textarea>\n                            </div>\n                        </div>\n                    ",more usable and more complex to make with different parts,File 42.mov,File 40.mov,,,
68969420c7d839a10c0a3d97,32580,comparison_trial,20,483867,0,5cdc899d48d5f100195fafff,68953131762dbff38dcaae6a,68969219fac6302c8fd913dd,0,1,"\n                        <div style=""text-align: center; padding: 20px; max-width: 1000px; margin: 0 auto;"">\n                            <h2 style=""font-size: 28px; margin-bottom: 40px; color: #333;"">\n                                Which object is more complex?\n                            </h2>\n                            \n                            <div style=""display: flex; justify-content: center; align-items: flex-start; gap: 60px; margin: 40px 0;"">\n                                <div style=""text-align: center;"">\n                                    <div style=""font-size: 20px; font-weight: bold; margin-bottom: 15px; color: #8C1515;"">Object A</div>\n                                    <video id=""video1"" src=""/general_assets/videos_familiarobjs/File 35.mp4"" \n                                           style=""width: 350px; height: 250px; object-fit: cover; border-radius: 8px; border: 2px solid #8C1515;""\n                                           muted loop>\n                                    </video>\n                                </div>\n                                \n                                <div style=""text-align: center;"">\n                                    <div style=""font-size: 20px; font-weight: bold; margin-bottom: 15px; color: #8C1515;"">Object B</div>\n                                    <video id=""video2"" src=""/general_assets/videos_familiarobjs/File 12.mp4"" \n                                           style=""width: 350px; height: 250px; object-fit: cover; border-radius: 8px; border: 2px solid #8C1515;""\n                                           muted loop>\n                                    </video>\n                                </div>\n                            </div>\n                            \n                            <p id=""instruction-text"" style=""margin-top: 30px; font-size: 18px; color: #666; max-width: 600px; margin-left: auto; margin-right: auto;"">\n                                Please wait for both videos to finish playing before making your choice.\n                            </p>\n                            \n                            <div id=""explanation-section"" style=""display: none; margin-top: 30px;"">\n                                <h3 style=""font-size: 22px; margin-bottom: 20px; color: #333;"">Please explain your choice:</h3>\n                                <textarea id=""explanation-text"" \n                                          placeholder=""Type your explanation here..."" \n                                          style=""width: 80%; max-width: 600px; height: 120px; padding: 15px; border: 2px solid #8C1515; border-radius: 8px; font-size: 16px; font-family: Arial, sans-serif; resize: vertical;""\n                                          required></textarea>\n                                <br><br>\n                                <button id=""submit-explanation"" class=""jspsych-btn"" style=""font-size: 18px; padding: 15px 30px; background-color: #8C1515; color: white; border: none; border-radius: 8px; cursor: pointer; min-width: 200px;"">\n                                    Continue\n                                </button>\n                            </div>\n                        </div>\n                    ",,File 35.mp4,File 12.mp4,main_experiment,File 12.mp4,Object B
68969420c7d839a10c0a3d99,20733,explanation_trial,21,504602,0,5cdc899d48d5f100195fafff,68953131762dbff38dcaae6a,68969219fac6302c8fd913dd,0,0,"\n                        <div style=""text-align: center; padding: 20px; max-width: 1000px; margin: 0 auto;"">\n                            <h2 style=""font-size: 28px; margin-bottom: 40px; color: #333;"">\n                                Explain Your Choice\n                            </h2>\n                            \n                            <div style=""display: flex; justify-content: center; align-items: flex-start; gap: 60px; margin: 40px 0;"">\n                                <div style=""text-align: center;"">\n                                    <div style=""font-size: 20px; font-weight: bold; margin-bottom: 15px; color: #8C1515;"">Object A</div>\n                                    <video id=""video1"" src=""/general_assets/videos_familiarobjs/File 35.mp4"" \n                                           style=""width: 350px; height: 250px; object-fit: cover; border-radius: 8px; border: 2px solid #8C1515;""\n                                           muted autoplay loop>\n                                    </video>\n                                </div>\n                                \n                                <div style=""text-align: center;"">\n                                    <div style=""font-size: 20px; font-weight: bold; margin-bottom: 15px; color: #28a745;"">Object B (Your Choice)</div>\n                                    <video id=""video2"" src=""/general_assets/videos_familiarobjs/File 12.mp4"" \n                                           style=""width: 350px; height: 250px; object-fit: cover; border-radius: 8px; border: 4px solid #28a745;""\n                                           muted autoplay loop>\n                                    </video>\n                                </div>\n                            </div>\n                            \n                            <div style=""margin-top: 40px; max-width: 800px; margin-left: auto; margin-right: auto;"">\n                                <h3 style=""font-size: 22px; margin-bottom: 20px; color: #333;"">\n                                    Please explain why you chose Object B as more complex:\n                                </h3>\n                                <textarea id=""explanation-text"" \n                                          placeholder=""Type your explanation here..."" \n                                          style=""width: 100%; height: 150px; padding: 20px; border: 2px solid #8C1515; border-radius: 8px; font-size: 16px; font-family: Arial, sans-serif; resize: vertical; box-sizing: border-box;""\n                                          required></textarea>\n                            </div>\n                        </div>\n                    ",its lighting i find it more complex than a tub,File 35.mp4,File 12.mp4,,,
68969420c7d839a10c0a3d9b,3396,instructions,22,508000,0,5cdc899d48d5f100195fafff,68953131762dbff38dcaae6a,68969219fac6302c8fd913dd,0,,,,,,,,
68969452c7d839a10c0a3d9d,3385,instructions,0,3391,0,5875778b5c17910001ea4f35,68953131762dbff38dcaae6a,6896928438e2e1cd46219807,0,,,,,,,,
68969452c7d839a10c0a3d9f,17516,instructions,1,20908,0,5875778b5c17910001ea4f35,68953131762dbff38dcaae6a,6896928438e2e1cd46219807,0,,,,,,,,
68969452c7d839a10c0a3da1,4567,instructions,22,455333,0,5875778b5c17910001ea4f35,68953131762dbff38dcaae6a,6896928438e2e1cd46219807,0,,,,,,,,
68969452c7d839a10c0a3da3,11015,comparison_trial,6,109696,0,5875778b5c17910001ea4f35,68953131762dbff38dcaae6a,6896928438e2e1cd46219807,0,1,"\n                        <div style=""text-align: center; padding: 20px; max-width: 1000px; margin: 0 auto;"">\n                            <h2 style=""font-size: 28px; margin-bottom: 40px; color: #333;"">\n                                Which object is more complex?\n                            </h2>\n                            \n                            <div style=""display: flex; justify-content: center; align-items: flex-start; gap: 60px; margin: 40px 0;"">\n                                <div style=""text-align: center;"">\n                                    <div style=""font-size: 20px; font-weight: bold; margin-bottom: 15px; color: #8C1515;"">Object A</div>\n                                    <video id=""video1"" src=""/general_assets/videos_familiarobjs/1H.mp4"" \n                                           style=""width: 350px; height: 250px; object-fit: cover; border-radius: 8px; border: 2px solid #8C1515;""\n                                           muted loop>\n                                    </video>\n                                </div>\n                                \n                                <div style=""text-align: center;"">\n                                    <div style=""font-size: 20px; font-weight: bold; margin-bottom: 15px; color: #8C1515;"">Object B</div>\n                                    <video id=""video2"" src=""/general_assets/videos_familiarobjs/5C.mp4"" \n                                           style=""width: 350px; height: 250px; object-fit: cover; border-radius: 8px; border: 2px solid #8C1515;""\n                                           muted loop>\n                                    </video>\n                                </div>\n                            </div>\n                            \n                            <p id=""instruction-text"" style=""margin-top: 30px; font-size: 18px; color: #666; max-width: 600px; margin-left: auto; margin-right: auto;"">\n                                Please wait for both videos to finish playing before making your choice.\n                            </p>\n                            \n                            <div id=""explanation-section"" style=""display: none; margin-top: 30px;"">\n                                <h3 style=""font-size: 22px; margin-bottom: 20px; color: #333;"">Please explain your choice:</h3>\n                                <textarea id=""explanation-text"" \n                                          placeholder=""Type your explanation here..."" \n                                          style=""width: 80%; max-width: 600px; height: 120px; padding: 15px; border: 2px solid #8C1515; border-radius: 8px; font-size: 16px; font-family: Arial, sans-serif; resize: vertical;""\n                                          required></textarea>\n                                <br><br>\n                                <button id=""submit-explanation"" class=""jspsych-btn"" style=""font-size: 18px; padding: 15px 30px; background-color: #8C1515; color: white; border: none; border-radius: 8px; cursor: pointer; min-width: 200px;"">\n                                    Continue\n                                </button>\n                            </div>\n                        </div>\n                    ",,1H.mp4,5C.mp4,main_experiment,5C.mp4,Object B
68969452c7d839a10c0a3da5,10616,comparison_trial,2,31532,0,5875778b5c17910001ea4f35,68953131762dbff38dcaae6a,6896928438e2e1cd46219807,0,0,"\n                        <div style=""text-align: center; padding: 20px; max-width: 1000px; margin: 0 auto;"">\n                            <h2 style=""font-size: 28px; margin-bottom: 40px; color: #333;"">\n                                Which object is more complex?\n                            </h2>\n                            \n                            <div style=""display: flex; justify-content: center; align-items: flex-start; gap: 60px; margin: 40px 0;"">\n                                <div style=""text-align: center;"">\n                                    <div style=""font-size: 20px; font-weight: bold; margin-bottom: 15px; color: #8C1515;"">Object A</div>\n                                    <video id=""video1"" src=""/general_assets/videos_familiarobjs/File 20.mp4"" \n                                           style=""width: 350px; height: 250px; object-fit: cover; border-radius: 8px; border: 2px solid #8C1515;""\n                                           muted loop>\n                                    </video>\n                                </div>\n                                \n                                <div style=""text-align: center;"">\n                                    <div style=""font-size: 20px; font-weight: bold; margin-bottom: 15px; color: #8C1515;"">Object B</div>\n                                    <video id=""video2"" src=""/general_assets/videos_familiarobjs/5D.mp4"" \n                                           style=""width: 350px; height: 250px; object-fit: cover; border-radius: 8px; border: 2px solid #8C1515;""\n                                           muted loop>\n                                    </video>\n                                </div>\n                            </div>\n                            \n                            <p id=""instruction-text"" style=""margin-top: 30px; font-size: 18px; color: #666; max-width: 600px; margin-left: auto; margin-right: auto;"">\n                                Please wait for both videos to finish playing before making your choice.\n                            </p>\n                            \n                            <div id=""explanation-section"" style=""display: none; margin-top: 30px;"">\n                                <h3 style=""font-size: 22px; margin-bottom: 20px; color: #333;"">Please explain your choice:</h3>\n                                <textarea id=""explanation-text"" \n                                          placeholder=""Type your explanation here..."" \n                                          style=""width: 80%; max-width: 600px; height: 120px; padding: 15px; border: 2px solid #8C1515; border-radius: 8px; font-size: 16px; font-family: Arial, sans-serif; resize: vertical;""\n                                          required></textarea>\n                                <br><br>\n                                <button id=""submit-explanation"" class=""jspsych-btn"" style=""font-size: 18px; padding: 15px 30px; background-color: #8C1515; color: white; border: none; border-radius: 8px; cursor: pointer; min-width: 200px;"">\n                                    Continue\n                                </button>\n                            </div>\n                        </div>\n                    ",,File 20.mp4,5D.mp4,main_experiment,File 20.mp4,Object A
68969452c7d839a10c0a3da9,17727,comparison_trial,20,422582,0,5875778b5c17910001ea4f35,68953131762dbff38dcaae6a,6896928438e2e1cd46219807,0,0,"\n                        <div style=""text-align: center; padding: 20px; max-width: 1000px; margin: 0 auto;"">\n                            <h2 style=""font-size: 28px; margin-bottom: 40px; color: #333;"">\n                                Which object is more complex?\n                            </h2>\n                            \n                            <div style=""display: flex; justify-content: center; align-items: flex-start; gap: 60px; margin: 40px 0;"">\n                                <div style=""text-align: center;"">\n                                    <div style=""font-size: 20px; font-weight: bold; margin-bottom: 15px; color: #8C1515;"">Object A</div>\n                                    <video id=""video1"" src=""/general_assets/videos_familiarobjs/File 27.mp4"" \n                                           style=""width: 350px; height: 250px; object-fit: cover; border-radius: 8px; border: 2px solid #8C1515;""\n                                           muted loop>\n                                    </video>\n                                </div>\n                                \n                                <div style=""text-align: center;"">\n                                    <div style=""font-size: 20px; font-weight: bold; margin-bottom: 15px; color: #8C1515;"">Object B</div>\n                                    <video id=""video2"" src=""/general_assets/videos_familiarobjs/3B.mp4"" \n                                           style=""width: 350px; height: 250px; object-fit: cover; border-radius: 8px; border: 2px solid #8C1515;""\n                                           muted loop>\n                                    </video>\n                                </div>\n                            </div>\n                            \n                            <p id=""instruction-text"" style=""margin-top: 30px; font-size: 18px; color: #666; max-width: 600px; margin-left: auto; margin-right: auto;"">\n                                Please wait for both videos to finish playing before making your choice.\n                            </p>\n                            \n                            <div id=""explanation-section"" style=""display: none; margin-top: 30px;"">\n                                <h3 style=""font-size: 22px; margin-bottom: 20px; color: #333;"">Please explain your choice:</h3>\n                                <textarea id=""explanation-text"" \n                                          placeholder=""Type your explanation here..."" \n                                          style=""width: 80%; max-width: 600px; height: 120px; padding: 15px; border: 2px solid #8C1515; border-radius: 8px; font-size: 16px; font-family: Arial, sans-serif; resize: vertical;""\n                                          required></textarea>\n                                <br><br>\n                                <button id=""submit-explanation"" class=""jspsych-btn"" style=""font-size: 18px; padding: 15px 30px; background-color: #8C1515; color: white; border: none; border-radius: 8px; cursor: pointer; min-width: 200px;"">\n                                    Continue\n                                </button>\n                            </div>\n                        </div>\n                    ",,File 27.mp4,3B.mp4,main_experiment,File 27.mp4,Object A
68969452c7d839a10c0a3dab,30761,explanation_trial,7,140462,0,5875778b5c17910001ea4f35,68953131762dbff38dcaae6a,6896928438e2e1cd46219807,0,0,"\n                        <div style=""text-align: center; padding: 20px; max-width: 1000px; margin: 0 auto;"">\n                            <h2 style=""font-size: 28px; margin-bottom: 40px; color: #333;"">\n                                Explain Your Choice\n                            </h2>\n                            \n                            <div style=""display: flex; justify-content: center; align-items: flex-start; gap: 60px; margin: 40px 0;"">\n                                <div style=""text-align: center;"">\n                                    <div style=""font-size: 20px; font-weight: bold; margin-bottom: 15px; color: #8C1515;"">Object A</div>\n                                    <video id=""video1"" src=""/general_assets/videos_familiarobjs/1H.mp4"" \n                                           style=""width: 350px; height: 250px; object-fit: cover; border-radius: 8px; border: 2px solid #8C1515;""\n                                           muted autoplay loop>\n                                    </video>\n                                </div>\n                                \n                                <div style=""text-align: center;"">\n                                    <div style=""font-size: 20px; font-weight: bold; margin-bottom: 15px; color: #28a745;"">Object B (Your Choice)</div>\n                                    <video id=""video2"" src=""/general_assets/videos_familiarobjs/5C.mp4"" \n                                           style=""width: 350px; height: 250px; object-fit: cover; border-radius: 8px; border: 4px solid #28a745;""\n                                           muted autoplay loop>\n                                    </video>\n                                </div>\n                            </div>\n                            \n                            <div style=""margin-top: 40px; max-width: 800px; margin-left: auto; margin-right: auto;"">\n                                <h3 style=""font-size: 22px; margin-bottom: 20px; color: #333;"">\n                                    Please explain why you chose Object B as more complex:\n                                </h3>\n                                <textarea id=""explanation-text"" \n                                          placeholder=""Type your explanation here..."" \n                                          style=""width: 100%; height: 150px; padding: 20px; border: 2px solid #8C1515; border-radius: 8px; font-size: 16px; font-family: Arial, sans-serif; resize: vertical; box-sizing: border-box;""\n                                          required></textarea>\n                            </div>\n                        </div>\n                    ",Different materials. It's also not as uniform as the other object,1H.mp4,5C.mp4,,,
68969452c7d839a10c0a3dad,16907,explanation_trial,3,48445,0,5875778b5c17910001ea4f35,68953131762dbff38dcaae6a,6896928438e2e1cd46219807,0,0,"\n                        <div style=""text-align: center; padding: 20px; max-width: 1000px; margin: 0 auto;"">\n                            <h2 style=""font-size: 28px; margin-bottom: 40px; color: #333;"">\n                                Explain Your Choice\n                            </h2>\n                            \n                            <div style=""display: flex; justify-content: center; align-items: flex-start; gap: 60px; margin: 40px 0;"">\n                                <div style=""text-align: center;"">\n                                    <div style=""font-size: 20px; font-weight: bold; margin-bottom: 15px; color: #28a745;"">Object A (Your Choice)</div>\n                                    <video id=""video1"" src=""/general_assets/videos_familiarobjs/File 20.mp4"" \n                                           style=""width: 350px; height: 250px; object-fit: cover; border-radius: 8px; border: 4px solid #28a745;""\n                                           muted autoplay loop>\n                                    </video>\n                                </div>\n                                \n                                <div style=""text-align: center;"">\n                                    <div style=""font-size: 20px; font-weight: bold; margin-bottom: 15px; color: #8C1515;"">Object B</div>\n                                    <video id=""video2"" src=""/general_assets/videos_familiarobjs/5D.mp4"" \n                                           style=""width: 350px; height: 250px; object-fit: cover; border-radius: 8px; border: 2px solid #8C1515;""\n                                           muted autoplay loop>\n                                    </video>\n                                </div>\n                            </div>\n                            \n                            <div style=""margin-top: 40px; max-width: 800px; margin-left: auto; margin-right: auto;"">\n                                <h3 style=""font-size: 22px; margin-bottom: 20px; color: #333;"">\n                                    Please explain why you chose Object A as more complex:\n                                </h3>\n                                <textarea id=""explanation-text"" \n                                          placeholder=""Type your explanation here..."" \n                                          style=""width: 100%; height: 150px; padding: 20px; border: 2px solid #8C1515; border-radius: 8px; font-size: 16px; font-family: Arial, sans-serif; resize: vertical; box-sizing: border-box;""\n                                          required></textarea>\n                            </div>\n                        </div>\n                    ",More angles and different materials,File 20.mp4,5D.mp4,,,
68969452c7d839a10c0a3da7,28180,explanation_trial,21,450764,0,5875778b5c17910001ea4f35,68953131762dbff38dcaae6a,6896928438e2e1cd46219807,0,0,"\n                        <div style=""text-align: center; padding: 20px; max-width: 1000px; margin: 0 auto;"">\n                            <h2 style=""font-size: 28px; margin-bottom: 40px; color: #333;"">\n                                Explain Your Choice\n                            </h2>\n                            \n                            <div style=""display: flex; justify-content: center; align-items: flex-start; gap: 60px; margin: 40px 0;"">\n                                <div style=""text-align: center;"">\n                                    <div style=""font-size: 20px; font-weight: bold; margin-bottom: 15px; color: #28a745;"">Object A (Your Choice)</div>\n                                    <video id=""video1"" src=""/general_assets/videos_familiarobjs/File 27.mp4"" \n                                           style=""width: 350px; height: 250px; object-fit: cover; border-radius: 8px; border: 4px solid #28a745;""\n                                           muted autoplay loop>\n                                    </video>\n                                </div>\n                                \n                                <div style=""text-align: center;"">\n                                    <div style=""font-size: 20px; font-weight: bold; margin-bottom: 15px; color: #8C1515;"">Object B</div>\n                                    <video id=""video2"" src=""/general_assets/videos_familiarobjs/3B.mp4"" \n                                           style=""width: 350px; height: 250px; object-fit: cover; border-radius: 8px; border: 2px solid #8C1515;""\n                                           muted autoplay loop>\n                                    </video>\n                                </div>\n                            </div>\n                            \n                            <div style=""margin-top: 40px; max-width: 800px; margin-left: auto; margin-right: auto;"">\n                                <h3 style=""font-size: 22px; margin-bottom: 20px; color: #333;"">\n                                    Please explain why you chose Object A as more complex:\n                                </h3>\n                                <textarea id=""explanation-text"" \n                                          placeholder=""Type your explanation here..."" \n                                          style=""width: 100%; height: 150px; padding: 20px; border: 2px solid #8C1515; border-radius: 8px; font-size: 16px; font-family: Arial, sans-serif; resize: vertical; box-sizing: border-box;""\n                                          required></textarea>\n                            </div>\n                        </div>\n                    ",Has a differing make-up both on top and bottom. Looks to have differing materials.,File 27.mp4,3B.mp4,,,
68969452c7d839a10c0a3daf,13083,comparison_trial,8,153547,0,5875778b5c17910001ea4f35,68953131762dbff38dcaae6a,6896928438e2e1cd46219807,0,1,"\n                        <div style=""text-align: center; padding: 20px; max-width: 1000px; margin: 0 auto;"">\n                            <h2 style=""font-size: 28px; margin-bottom: 40px; color: #333;"">\n                                Which object is more complex?\n                            </h2>\n                            \n                            <div style=""display: flex; justify-content: center; align-items: flex-start; gap: 60px; margin: 40px 0;"">\n                                <div style=""text-align: center;"">\n                                    <div style=""font-size: 20px; font-weight: bold; margin-bottom: 15px; color: #8C1515;"">Object A</div>\n                                    <video id=""video1"" src=""/general_assets/videos_familiarobjs/File 51.mov"" \n                                           style=""width: 350px; height: 250px; object-fit: cover; border-radius: 8px; border: 2px solid #8C1515;""\n                                           muted loop>\n                                    </video>\n                                </div>\n                                \n                                <div style=""text-align: center;"">\n                                    <div style=""font-size: 20px; font-weight: bold; margin-bottom: 15px; color: #8C1515;"">Object B</div>\n                                    <video id=""video2"" src=""/general_assets/videos_familiarobjs/File 10.mp4"" \n                                           style=""width: 350px; height: 250px; object-fit: cover; border-radius: 8px; border: 2px solid #8C1515;""\n                                           muted loop>\n                                    </video>\n                                </div>\n                            </div>\n                            \n                            <p id=""instruction-text"" style=""margin-top: 30px; font-size: 18px; color: #666; max-width: 600px; margin-left: auto; margin-right: auto;"">\n                                Please wait for both videos to finish playing before making your choice.\n                            </p>\n                            \n                            <div id=""explanation-section"" style=""display: none; margin-top: 30px;"">\n                                <h3 style=""font-size: 22px; margin-bottom: 20px; color: #333;"">Please explain your choice:</h3>\n                                <textarea id=""explanation-text"" \n                                          placeholder=""Type your explanation here..."" \n                                          style=""width: 80%; max-width: 600px; height: 120px; padding: 15px; border: 2px solid #8C1515; border-radius: 8px; font-size: 16px; font-family: Arial, sans-serif; resize: vertical;""\n                                          required></textarea>\n                                <br><br>\n                                <button id=""submit-explanation"" class=""jspsych-btn"" style=""font-size: 18px; padding: 15px 30px; background-color: #8C1515; color: white; border: none; border-radius: 8px; cursor: pointer; min-width: 200px;"">\n                                    Continue\n                                </button>\n                            </div>\n                        </div>\n                    ",,File 51.mov,File 10.mp4,main_experiment,File 10.mp4,Object B
68969452c7d839a10c0a3db1,7481,comparison_trial,4,55930,0,5875778b5c17910001ea4f35,68953131762dbff38dcaae6a,6896928438e2e1cd46219807,0,0,"\n                        <div style=""text-align: center; padding: 20px; max-width: 1000px; margin: 0 auto;"">\n                            <h2 style=""font-size: 28px; margin-bottom: 40px; color: #333;"">\n                                Which object is more complex?\n                            </h2>\n                            \n                            <div style=""display: flex; justify-content: center; align-items: flex-start; gap: 60px; margin: 40px 0;"">\n                                <div style=""text-align: center;"">\n                                    <div style=""font-size: 20px; font-weight: bold; margin-bottom: 15px; color: #8C1515;"">Object A</div>\n                                    <video id=""video1"" src=""/general_assets/videos_familiarobjs/File 65.mov"" \n                                           style=""width: 350px; height: 250px; object-fit: cover; border-radius: 8px; border: 2px solid #8C1515;""\n                                           muted loop>\n                                    </video>\n                                </div>\n                                \n                                <div style=""text-align: center;"">\n                                    <div style=""font-size: 20px; font-weight: bold; margin-bottom: 15px; color: #8C1515;"">Object B</div>\n                                    <video id=""video2"" src=""/general_assets/videos_familiarobjs/1E.mp4"" \n                                           style=""width: 350px; height: 250px; object-fit: cover; border-radius: 8px; border: 2px solid #8C1515;""\n                                           muted loop>\n                                    </video>\n                                </div>\n                            </div>\n                            \n                            <p id=""instruction-text"" style=""margin-top: 30px; font-size: 18px; color: #666; max-width: 600px; margin-left: auto; margin-right: auto;"">\n                                Please wait for both videos to finish playing before making your choice.\n                            </p>\n                            \n                            <div id=""explanation-section"" style=""display: none; margin-top: 30px;"">\n                                <h3 style=""font-size: 22px; margin-bottom: 20px; color: #333;"">Please explain your choice:</h3>\n                                <textarea id=""explanation-text"" \n                                          placeholder=""Type your explanation here..."" \n                                          style=""width: 80%; max-width: 600px; height: 120px; padding: 15px; border: 2px solid #8C1515; border-radius: 8px; font-size: 16px; font-family: Arial, sans-serif; resize: vertical;""\n                                          required></textarea>\n                                <br><br>\n                                <button id=""submit-explanation"" class=""jspsych-btn"" style=""font-size: 18px; padding: 15px 30px; background-color: #8C1515; color: white; border: none; border-radius: 8px; cursor: pointer; min-width: 200px;"">\n                                    Continue\n                                </button>\n                            </div>\n                        </div>\n                    ",,File 65.mov,1E.mp4,main_experiment,File 65.mov,Object A
68969452c7d839a10c0a3db3,42744,explanation_trial,5,98678,0,5875778b5c17910001ea4f35,68953131762dbff38dcaae6a,6896928438e2e1cd46219807,0,0,"\n                        <div style=""text-align: center; padding: 20px; max-width: 1000px; margin: 0 auto;"">\n                            <h2 style=""font-size: 28px; margin-bottom: 40px; color: #333;"">\n                                Explain Your Choice\n                            </h2>\n                            \n                            <div style=""display: flex; justify-content: center; align-items: flex-start; gap: 60px; margin: 40px 0;"">\n                                <div style=""text-align: center;"">\n                                    <div style=""font-size: 20px; font-weight: bold; margin-bottom: 15px; color: #28a745;"">Object A (Your Choice)</div>\n                                    <video id=""video1"" src=""/general_assets/videos_familiarobjs/File 65.mov"" \n                                           style=""width: 350px; height: 250px; object-fit: cover; border-radius: 8px; border: 4px solid #28a745;""\n                                           muted autoplay loop>\n                                    </video>\n                                </div>\n                                \n                                <div style=""text-align: center;"">\n                                    <div style=""font-size: 20px; font-weight: bold; margin-bottom: 15px; color: #8C1515;"">Object B</div>\n                                    <video id=""video2"" src=""/general_assets/videos_familiarobjs/1E.mp4"" \n                                           style=""width: 350px; height: 250px; object-fit: cover; border-radius: 8px; border: 2px solid #8C1515;""\n                                           muted autoplay loop>\n                                    </video>\n                                </div>\n                            </div>\n                            \n                            <div style=""margin-top: 40px; max-width: 800px; margin-left: auto; margin-right: auto;"">\n                                <h3 style=""font-size: 22px; margin-bottom: 20px; color: #333;"">\n                                    Please explain why you chose Object A as more complex:\n                                </h3>\n                                <textarea id=""explanation-text"" \n                                          placeholder=""Type your explanation here..."" \n                                          style=""width: 100%; height: 150px; padding: 20px; border: 2px solid #8C1515; border-radius: 8px; font-size: 16px; font-family: Arial, sans-serif; resize: vertical; box-sizing: border-box;""\n                                          required></textarea>\n                            </div>\n                        </div>\n                    ","Has parts that can be pulled together or apart. Also, much larger",File 65.mov,1E.mp4,,,
68969452c7d839a10c0a3db5,34743,explanation_trial,19,404851,0,5875778b5c17910001ea4f35,68953131762dbff38dcaae6a,6896928438e2e1cd46219807,0,0,"\n                        <div style=""text-align: center; padding: 20px; max-width: 1000px; margin: 0 auto;"">\n                            <h2 style=""font-size: 28px; margin-bottom: 40px; color: #333;"">\n                                Explain Your Choice\n                            </h2>\n                            \n                            <div style=""display: flex; justify-content: center; align-items: flex-start; gap: 60px; margin: 40px 0;"">\n                                <div style=""text-align: center;"">\n                                    <div style=""font-size: 20px; font-weight: bold; margin-bottom: 15px; color: #8C1515;"">Object A</div>\n                                    <video id=""video1"" src=""/general_assets/videos_familiarobjs/File 9.mp4"" \n                                           style=""width: 350px; height: 250px; object-fit: cover; border-radius: 8px; border: 2px solid #8C1515;""\n                                           muted autoplay loop>\n                                    </video>\n                                </div>\n                                \n                                <div style=""text-align: center;"">\n                                    <div style=""font-size: 20px; font-weight: bold; margin-bottom: 15px; color: #28a745;"">Object B (Your Choice)</div>\n                                    <video id=""video2"" src=""/general_assets/videos_familiarobjs/1D.mp4"" \n                                           style=""width: 350px; height: 250px; object-fit: cover; border-radius: 8px; border: 4px solid #28a745;""\n                                           muted autoplay loop>\n                                    </video>\n                                </div>\n                            </div>\n                            \n                            <div style=""margin-top: 40px; max-width: 800px; margin-left: auto; margin-right: auto;"">\n                                <h3 style=""font-size: 22px; margin-bottom: 20px; color: #333;"">\n                                    Please explain why you chose Object B as more complex:\n                                </h3>\n                                <textarea id=""explanation-text"" \n                                          placeholder=""Type your explanation here..."" \n                                          style=""width: 100%; height: 150px; padding: 20px; border: 2px solid #8C1515; border-radius: 8px; font-size: 16px; font-family: Arial, sans-serif; resize: vertical; box-sizing: border-box;""\n                                          required></textarea>\n                            </div>\n                        </div>\n                    ",The shape is odd compared to the other object. Also made from different textures.,File 9.mp4,1D.mp4,,,
